Typical Measured Spectrum of Semrock NF03-488E Optical Filter	
For wavelengths between 320 and 1120 nm, values near or below 3e-7 (Optical Density 6.5) are measurement noise limited.
For wavelengths < 320 nm and > 1120 nm, values near or below 3e-6 (Optical Density 5.5) are measurement noise limited. 
Data format:  Wavelength (nm) <tab> Transmission (0 to 1)
345.0	0.01681
345.2	0.01675
345.4	0.01671
345.6	0.0167
345.8	0.01679
346.0	0.01766
346.2	0.02196
346.4	0.02126
346.6	0.0196
346.8	0.02174
347.0	0.02502
347.2	0.03054
347.4	0.07125
347.6	0.24304
347.8	0.45827
348.0	0.54268
348.2	0.57318
348.4	0.59345
348.6	0.61017
348.8	0.62464
349.0	0.63531
349.2	0.64747
349.4	0.6615
349.6	0.66868
349.8	0.66977
350.0	0.67828
350.2	0.69146
350.4	0.70278
350.6	0.70894
350.8	0.7172
351.0	0.72327
351.2	0.72986
351.4	0.73487
351.6	0.73995
351.8	0.74476
352.0	0.74671
352.2	0.75082
352.4	0.75269
352.6	0.75663
352.8	0.76204
353.0	0.76549
353.2	0.77157
353.4	0.77225
353.6	0.77212
353.8	0.78296
354.0	0.78499
354.2	0.78235
354.4	0.78724
354.6	0.78896
354.8	0.79229
355.0	0.79892
355.2	0.79969
355.4	0.80292
355.6	0.8085
355.8	0.80817
356.0	0.80938
356.2	0.8163
356.4	0.81604
356.6	0.81721
356.8	0.82308
357.0	0.82246
357.2	0.8211
357.4	0.82664
357.6	0.82871
357.8	0.82776
358.0	0.83124
358.2	0.83169
358.4	0.82836
358.6	0.832
358.8	0.83566
359.0	0.83473
359.2	0.83376
359.4	0.83558
359.6	0.82853
359.8	0.82541
360.0	0.83049
360.2	0.83229
360.4	0.83166
360.6	0.83412
360.8	0.83856
361.0	0.83438
361.2	0.83283
361.4	0.84113
361.6	0.84578
361.8	0.84093
362.0	0.83948
362.2	0.84326
362.4	0.84553
362.6	0.84229
362.8	0.844
363.0	0.84435
363.2	0.83834
363.4	0.8324
363.6	0.83467
363.8	0.83722
364.0	0.83014
364.2	0.82506
364.4	0.82879
364.6	0.83568
364.8	0.83622
365.0	0.83447
365.2	0.83301
365.4	0.82956
365.6	0.82971
365.8	0.83544
366.0	0.83693
366.2	0.83419
366.4	0.83089
366.6	0.83678
366.8	0.83901
367.0	0.83427
367.2	0.8324
367.4	0.83663
367.6	0.84122
367.8	0.83606
368.0	0.83072
368.2	0.8333
368.4	0.83739
368.6	0.83352
368.8	0.82759
369.0	0.82932
369.2	0.83604
369.4	0.83282
369.6	0.82768
369.8	0.82833
370.0	0.83627
370.2	0.84033
370.4	0.83742
370.6	0.83483
370.8	0.83878
371.0	0.84455
371.2	0.84136
371.4	0.83745
371.6	0.8406
371.8	0.84834
372.0	0.84802
372.2	0.84407
372.4	0.84183
372.6	0.84478
372.8	0.84716
373.0	0.84213
373.2	0.83571
373.4	0.8364
373.6	0.8409
373.8	0.84142
374.0	0.83742
374.2	0.8366
374.4	0.84101
374.6	0.84665
374.8	0.84468
375.0	0.84091
375.2	0.84438
375.4	0.84952
375.6	0.85069
375.8	0.84542
376.0	0.84124
376.2	0.84683
376.4	0.85531
376.6	0.8589
376.8	0.85665
377.0	0.85401
377.2	0.8558
377.4	0.86285
377.6	0.8635
377.8	0.85899
378.0	0.85812
378.2	0.86247
378.4	0.86602
378.6	0.86253
378.8	0.85585
379.0	0.85487
379.2	0.85832
379.4	0.8589
379.6	0.85328
379.8	0.84692
380.0	0.84832
380.2	0.85832
380.4	0.86468
380.6	0.866
380.8	0.86314
381.0	0.86638
381.2	0.8723
381.4	0.87888
381.6	0.87787
381.8	0.87263
382.0	0.87038
382.2	0.87562
382.4	0.88036
382.6	0.88035
382.8	0.87544
383.0	0.87436
383.2	0.87873
383.4	0.88627
383.6	0.88674
383.8	0.87961
384.0	0.87559
384.2	0.87806
384.4	0.88484
384.6	0.88729
384.8	0.88516
385.0	0.88159
385.2	0.88341
385.4	0.88878
385.6	0.89165
385.8	0.89115
386.0	0.88777
386.2	0.88916
386.4	0.89581
386.6	0.90178
386.8	0.90186
387.0	0.89759
387.2	0.89498
387.4	0.89758
387.6	0.90248
387.8	0.90481
388.0	0.90087
388.2	0.89718
388.4	0.89982
388.6	0.90637
388.8	0.91178
389.0	0.91026
389.2	0.90412
389.4	0.90132
389.6	0.9033
389.8	0.90977
390.0	0.91364
390.2	0.90883
390.4	0.90388
390.6	0.90393
390.8	0.91176
391.0	0.91859
391.2	0.91799
391.4	0.9115
391.6	0.90703
391.8	0.91024
392.0	0.91739
392.2	0.92384
392.4	0.92431
392.6	0.91809
392.8	0.91359
393.0	0.9163
393.2	0.92412
393.4	0.92864
393.6	0.92772
393.8	0.92227
394.0	0.92175
394.2	0.92453
394.4	0.9303
394.6	0.93201
394.8	0.92792
395.0	0.92342
395.2	0.92178
395.4	0.92562
395.6	0.93129
395.8	0.93238
396.0	0.92877
396.2	0.92356
396.4	0.92409
396.6	0.92869
396.8	0.93326
397.0	0.93341
397.2	0.93069
397.4	0.92715
397.6	0.92814
397.8	0.93465
398.0	0.94009
398.2	0.94033
398.4	0.93617
398.6	0.93097
398.8	0.93115
399.0	0.9342
399.2	0.93965
399.4	0.94135
399.6	0.93845
399.8	0.93425
400.0	0.9355
400.2	0.93981
400.4	0.94527
400.6	0.94608
400.8	0.94098
401.0	0.93567
401.2	0.93475
401.4	0.94019
401.6	0.94638
401.8	0.94932
402.0	0.94548
402.2	0.93924
402.4	0.93588
402.6	0.93928
402.8	0.9453
403.0	0.94983
403.2	0.94907
403.4	0.94393
403.6	0.93805
403.8	0.9391
404.0	0.94432
404.2	0.94971
404.4	0.95177
404.6	0.94783
404.8	0.94332
405.0	0.94165
405.2	0.94595
405.4	0.95351
405.6	0.95606
405.8	0.95444
406.0	0.94816
406.2	0.94355
406.4	0.94373
406.6	0.94827
406.8	0.95268
407.0	0.95347
407.2	0.94976
407.4	0.94593
407.6	0.94452
407.8	0.94707
408.0	0.95023
408.2	0.95243
408.4	0.94895
408.6	0.94439
408.8	0.94032
409.0	0.94189
409.2	0.94684
409.4	0.95191
409.6	0.95275
409.8	0.94848
410.0	0.94416
410.2	0.94264
410.4	0.94745
410.6	0.9535
410.8	0.95857
411.0	0.95802
411.2	0.95249
411.4	0.94673
411.6	0.94535
411.8	0.94797
412.0	0.95273
412.2	0.95519
412.4	0.9537
412.6	0.9489
412.8	0.94473
413.0	0.94458
413.2	0.94901
413.4	0.95358
413.6	0.95642
413.8	0.95384
414.0	0.9486
414.2	0.94564
414.4	0.94567
414.6	0.94894
414.8	0.9522
415.0	0.9535
415.2	0.94942
415.4	0.94541
415.6	0.94327
415.8	0.94526
416.0	0.94985
416.2	0.95346
416.4	0.95407
416.6	0.95122
416.8	0.94669
417.0	0.94495
417.2	0.94774
417.4	0.95322
417.6	0.95567
417.8	0.95535
418.0	0.95054
418.2	0.94553
418.4	0.94338
418.6	0.94439
418.8	0.95028
419.0	0.95462
419.2	0.95458
419.4	0.94918
419.6	0.9424
419.8	0.93594
420.0	0.93646
420.2	0.94227
420.4	0.94824
420.6	0.95262
420.8	0.95131
421.0	0.94519
421.2	0.94074
421.4	0.93873
421.6	0.94172
421.8	0.94698
422.0	0.95211
422.2	0.9509
422.4	0.94632
422.6	0.94035
422.8	0.93735
423.0	0.93768
423.2	0.94241
423.4	0.94773
423.6	0.94965
423.8	0.94843
424.0	0.94372
424.2	0.93875
424.4	0.93639
424.6	0.93927
424.8	0.94201
425.0	0.94428
425.2	0.94342
425.4	0.94098
425.6	0.93814
425.8	0.93739
426.0	0.93827
426.2	0.94042
426.4	0.94003
426.6	0.93852
426.8	0.93456
427.0	0.9313
427.2	0.93015
427.4	0.93347
427.6	0.93983
427.8	0.94625
428.0	0.9492
428.2	0.94723
428.4	0.94339
428.6	0.93831
428.8	0.93545
429.0	0.93781
429.2	0.94155
429.4	0.9462
429.6	0.94643
429.8	0.9454
430.0	0.93981
430.2	0.93614
430.4	0.93528
430.6	0.93742
430.8	0.94132
431.0	0.94475
431.2	0.94696
431.4	0.94515
431.6	0.94027
431.8	0.93794
432.0	0.93635
432.2	0.93779
432.4	0.93973
432.6	0.9403
432.8	0.94042
433.0	0.93924
433.2	0.93747
433.4	0.93729
433.6	0.93843
433.8	0.94096
434.0	0.94173
434.2	0.94069
434.4	0.93693
434.6	0.93285
434.8	0.93119
435.0	0.9304
435.2	0.93033
435.4	0.93541
435.6	0.94028
435.8	0.94387
436.0	0.94324
436.2	0.93981
436.4	0.93657
436.6	0.93281
436.8	0.93245
437.0	0.93586
437.2	0.93972
437.4	0.94286
437.6	0.94343
437.8	0.94196
438.0	0.93802
438.2	0.9356
438.4	0.93549
438.6	0.9383
438.8	0.94151
439.0	0.94399
439.2	0.94342
439.4	0.94103
439.6	0.9369
439.8	0.9349
440.0	0.93513
440.2	0.93988
440.4	0.94545
440.6	0.94953
440.8	0.94962
441.0	0.94589
441.2	0.93982
441.4	0.93467
441.6	0.93222
441.8	0.93308
442.0	0.93678
442.2	0.94087
442.4	0.94148
442.6	0.94009
442.8	0.93729
443.0	0.93358
443.2	0.93231
443.4	0.93392
443.6	0.93908
443.8	0.94408
444.0	0.94687
444.2	0.94654
444.4	0.94272
444.6	0.93817
444.8	0.93496
445.0	0.93536
445.2	0.93757
445.4	0.9415
445.6	0.945
445.8	0.9469
446.0	0.9457
446.2	0.94342
446.4	0.94136
446.6	0.94072
446.8	0.94203
447.0	0.94624
447.2	0.94816
447.4	0.94837
447.6	0.944
447.8	0.93842
448.0	0.9327
448.2	0.92974
448.4	0.93174
448.6	0.93646
448.8	0.94132
449.0	0.94591
449.2	0.9464
449.4	0.94355
449.6	0.93778
449.8	0.93296
450.0	0.93111
450.2	0.93346
450.4	0.93703
450.6	0.94312
450.8	0.94703
451.0	0.94761
451.2	0.94484
451.4	0.94018
451.6	0.93667
451.8	0.9359
452.0	0.93839
452.2	0.9441
452.4	0.94837
452.6	0.95155
452.8	0.9499
453.0	0.94639
453.2	0.94075
453.4	0.93692
453.6	0.93563
453.8	0.93818
454.0	0.94254
454.2	0.94629
454.4	0.94928
454.6	0.94737
454.8	0.94285
455.0	0.93718
455.2	0.93393
455.4	0.93299
455.6	0.936
455.8	0.94057
456.0	0.9453
456.2	0.9483
456.4	0.94788
456.6	0.94454
456.8	0.94112
457.0	0.93778
457.2	0.93679
457.4	0.93899
457.6	0.94306
457.8	0.94673
458.0	0.94834
458.2	0.94867
458.4	0.9455
458.6	0.94311
458.8	0.94123
459.0	0.94199
459.2	0.94469
459.4	0.94929
459.6	0.95313
459.8	0.95492
460.0	0.95478
460.2	0.95201
460.4	0.94948
460.6	0.9461
460.8	0.94528
461.0	0.94585
461.2	0.94688
461.4	0.94789
461.6	0.94748
461.8	0.94603
462.0	0.94378
462.2	0.94129
462.4	0.94181
462.6	0.94331
462.8	0.94753
463.0	0.95064
463.2	0.9534
463.4	0.95369
463.6	0.95168
463.8	0.94823
464.0	0.94414
464.2	0.94231
464.4	0.94242
464.6	0.94467
464.8	0.94846
465.0	0.9507
465.2	0.95171
465.4	0.94958
465.6	0.94637
465.8	0.94398
466.0	0.94337
466.2	0.94602
466.4	0.95066
466.6	0.95615
466.8	0.96173
467.0	0.96331
467.2	0.96177
467.4	0.95739
467.6	0.95204
467.8	0.94814
468.0	0.94692
468.2	0.94629
468.4	0.94926
468.6	0.95404
468.8	0.95831
469.0	0.96015
469.2	0.95862
469.4	0.95398
469.6	0.94797
469.8	0.94322
470.0	0.94197
470.2	0.94354
470.4	0.9481
470.6	0.95378
470.8	0.95759
471.0	0.95936
471.2	0.95736
471.4	0.9537
471.6	0.94862
471.8	0.94589
472.0	0.94559
472.2	0.94673
472.4	0.94918
472.6	0.95046
472.8	0.95093
473.0	0.94813
473.2	0.94453
473.4	0.94235
473.6	0.94245
473.8	0.94694
474.0	0.95372
474.2	0.96088
474.4	0.96674
474.6	0.9673
474.8	0.96439
475.0	0.95823
475.2	0.95207
475.4	0.94864
475.6	0.94827
475.8	0.95094
476.0	0.95495
476.2	0.95711
476.4	0.95598
476.6	0.95264
476.8	0.94807
477.0	0.94594
477.2	0.94797
477.4	0.95271
477.6	0.9593
477.8	0.96382
478.0	0.96377
478.2	0.96006
478.4	0.95488
478.6	0.95121
478.8	0.95009
479.0	0.95092
479.2	0.95134
479.4	0.9512
479.6	0.95027
479.8	0.95269
480.0	0.95838
480.2	0.96055
480.4	0.95225
480.6	0.94186
480.8	0.9462
481.0	0.83948
481.2	0.48045
481.4	0.16747
481.6	0.05022
481.8	0.018
482.0	0.00828
482.2	0.00479
482.4	0.00142
482.6	5.1968e-04
482.8	2.6289e-04
483.0	1.4161e-04
483.2	8.3136e-05
483.4	5.0676e-05
483.6	3.3028e-05
483.8	2.1712e-05
484.0	1.3537e-05
484.2	9.4036e-06
484.4	6.6508e-06
484.6	5.0439e-06
484.8	3.8253e-06
485.0	2.9208e-06
485.2	2.2373e-06
485.4	1.8399e-06
485.6	1.5804e-06
485.8	1.3616e-06
486.0	1.2093e-06
486.2	1.074e-06
486.4	1.0289e-06
486.6	1.0448e-06
486.8	1.0165e-06
487.0	9.551e-07
487.2	8.9815e-07
487.4	8.7321e-07
487.6	8.4896e-07
487.8	8.3279e-07
488.0	8.2426e-07
488.2	7.9936e-07
488.4	7.5496e-07
488.6	7.1304e-07
488.8	7.6838e-07
489.0	8.389e-07
489.2	9.2768e-07
489.4	1.047e-06
489.6	1.1413e-06
489.8	1.1553e-06
490.0	1.1694e-06
490.2	1.2746e-06
490.4	1.416e-06
490.6	1.5958e-06
490.8	1.8676e-06
491.0	2.2002e-06
491.2	2.654e-06
491.4	3.2015e-06
491.6	4.0891e-06
491.8	5.3558e-06
492.0	7.1724e-06
492.2	1.0706e-05
492.4	1.5981e-05
492.6	2.38e-05
492.8	3.5436e-05
493.0	5.6615e-05
493.2	9.2062e-05
493.4	1.9511e-04
493.6	4.6448e-04
493.8	9.2534e-04
494.0	0.00154
494.2	0.00273
494.4	0.00562
494.6	0.01303
494.8	0.0349
495.0	0.10744
495.2	0.32718
495.4	0.69901
495.6	0.92072
495.8	0.95392
496.0	0.9594
496.2	0.9662
496.4	0.96355
496.6	0.95531
496.8	0.94857
497.0	0.94988
497.2	0.95758
497.4	0.96255
497.6	0.96325
497.8	0.95882
498.0	0.95199
498.2	0.94871
498.4	0.94967
498.6	0.95503
498.8	0.96067
499.0	0.96432
499.2	0.96295
499.4	0.95652
499.6	0.94873
499.8	0.94347
500.0	0.94027
500.2	0.94238
500.4	0.94809
500.6	0.95363
500.8	0.95757
501.0	0.96004
501.2	0.95979
501.4	0.95681
501.6	0.95288
501.8	0.95065
502.0	0.95042
502.2	0.95066
502.4	0.95134
502.6	0.9534
502.8	0.95472
503.0	0.95298
503.2	0.9506
503.4	0.94952
503.6	0.94815
503.8	0.94792
504.0	0.95118
504.2	0.95565
504.4	0.96046
504.6	0.96365
504.8	0.96618
505.0	0.96649
505.2	0.9622
505.4	0.95655
505.6	0.95225
505.8	0.94984
506.0	0.94775
506.2	0.94804
506.4	0.95069
506.6	0.95329
506.8	0.95417
507.0	0.95342
507.2	0.95276
507.4	0.95081
507.6	0.94672
507.8	0.94375
508.0	0.94384
508.2	0.94488
508.4	0.94585
508.6	0.94905
508.8	0.95275
509.0	0.95425
509.2	0.95402
509.4	0.95262
509.6	0.95087
509.8	0.94797
510.0	0.94523
510.2	0.94512
510.4	0.94741
510.6	0.94945
510.8	0.95226
511.0	0.9567
511.2	0.95903
511.4	0.95893
511.6	0.95648
511.8	0.95285
512.0	0.9494
512.2	0.94587
512.4	0.94295
512.6	0.94362
512.8	0.94641
513.0	0.94977
513.2	0.95441
513.4	0.959
513.6	0.96245
513.8	0.96378
514.0	0.96224
514.2	0.95907
514.4	0.9554
514.6	0.95196
514.8	0.94813
515.0	0.94797
515.2	0.95001
515.4	0.9522
515.6	0.95491
515.8	0.9589
516.0	0.96136
516.2	0.96128
516.4	0.95899
516.6	0.95556
516.8	0.95271
517.0	0.94938
517.2	0.94646
517.4	0.94651
517.6	0.94879
517.8	0.95109
518.0	0.95384
518.2	0.95768
518.4	0.96016
518.6	0.96035
518.8	0.95805
519.0	0.95479
519.2	0.95187
519.4	0.94812
519.6	0.94499
519.8	0.94395
520.0	0.94672
520.2	0.94935
520.4	0.95231
520.6	0.95578
520.8	0.95935
521.0	0.96051
521.2	0.95998
521.4	0.95726
521.6	0.95486
521.8	0.95204
522.0	0.9487
522.2	0.94681
522.4	0.9473
522.6	0.94965
522.8	0.95161
523.0	0.954
523.2	0.95707
523.4	0.95923
523.6	0.95869
523.8	0.95652
524.0	0.9537
524.2	0.95166
524.4	0.94912
524.6	0.94622
524.8	0.94585
525.0	0.9478
525.2	0.95033
525.4	0.95212
525.6	0.95484
525.8	0.95744
526.0	0.95921
526.2	0.95818
526.4	0.95584
526.6	0.9539
526.8	0.95263
527.0	0.95043
527.2	0.94872
527.4	0.94914
527.6	0.95098
527.8	0.9531
528.0	0.95392
528.2	0.95531
528.4	0.95599
528.6	0.95572
528.8	0.95315
529.0	0.94995
529.2	0.94739
529.4	0.94547
529.6	0.94331
529.8	0.94191
530.0	0.94244
530.2	0.94508
530.4	0.94736
530.6	0.94875
530.8	0.95123
531.0	0.95251
531.2	0.95341
531.4	0.95158
531.6	0.94964
531.8	0.94875
532.0	0.94862
532.2	0.94804
532.4	0.94823
532.6	0.9505
532.8	0.95439
533.0	0.95736
533.2	0.95961
533.4	0.96093
533.6	0.96184
533.8	0.96137
534.0	0.95955
534.2	0.95614
534.4	0.95328
534.6	0.95186
534.8	0.95085
535.0	0.95003
535.2	0.95114
535.4	0.95384
535.6	0.95723
535.8	0.95956
536.0	0.96063
536.2	0.96176
536.4	0.96195
536.6	0.96095
536.8	0.95825
537.0	0.95498
537.2	0.95304
537.4	0.95206
537.6	0.95119
537.8	0.95065
538.0	0.95142
538.2	0.95383
538.4	0.95556
538.6	0.95588
538.8	0.95593
539.0	0.95521
539.2	0.95427
539.4	0.95221
539.6	0.94896
539.8	0.94651
540.0	0.94623
540.2	0.94703
540.4	0.94754
540.6	0.94874
540.8	0.95172
541.0	0.95506
541.2	0.95736
541.4	0.95762
541.6	0.95717
541.8	0.95587
542.0	0.95369
542.2	0.9507
542.4	0.94692
542.6	0.94367
542.8	0.94327
543.0	0.94759
543.2	0.95559
543.4	0.95773
543.6	0.95842
543.8	0.95807
544.0	0.9572
544.2	0.95578
544.4	0.95309
544.6	0.94982
544.8	0.9479
545.0	0.94763
545.2	0.94945
545.4	0.95057
545.6	0.95235
545.8	0.95577
546.0	0.95958
546.2	0.9623
546.4	0.9627
546.6	0.96236
546.8	0.96042
547.0	0.95906
547.2	0.95648
547.4	0.95311
547.6	0.95012
547.8	0.94912
548.0	0.94985
548.2	0.95113
548.4	0.95226
548.6	0.95364
548.8	0.95604
549.0	0.9581
549.2	0.95891
549.4	0.95763
549.6	0.95541
549.8	0.95353
550.0	0.95139
550.2	0.94938
550.4	0.94662
550.6	0.94502
550.8	0.94588
551.0	0.94799
551.2	0.94938
551.4	0.9511
551.6	0.95326
551.8	0.95545
552.0	0.95681
552.2	0.95683
552.4	0.95486
552.6	0.95274
552.8	0.951
553.0	0.94917
553.2	0.94758
553.4	0.94602
553.6	0.9456
553.8	0.94778
554.0	0.95099
554.2	0.95348
554.4	0.95533
554.6	0.95774
554.8	0.95965
555.0	0.9608
555.2	0.96044
555.4	0.95815
555.6	0.95577
555.8	0.95395
556.0	0.95282
556.2	0.95149
556.4	0.9507
556.6	0.95127
556.8	0.95291
557.0	0.9556
557.2	0.95812
557.4	0.95977
557.6	0.96064
557.8	0.96176
558.0	0.96187
558.2	0.96106
558.4	0.95854
558.6	0.95569
558.8	0.95343
559.0	0.95255
559.2	0.95172
559.4	0.95135
559.6	0.95121
559.8	0.95253
560.0	0.95547
560.2	0.95756
560.4	0.95863
560.6	0.9593
560.8	0.95934
561.0	0.9595
561.2	0.95839
561.4	0.95639
561.6	0.9536
561.8	0.95147
562.0	0.95051
562.2	0.9508
562.4	0.95113
562.6	0.9511
562.8	0.95191
563.0	0.95394
563.2	0.95578
563.4	0.95742
563.6	0.95724
563.8	0.95634
564.0	0.9555
564.2	0.95452
564.4	0.95311
564.6	0.95087
564.8	0.94858
565.0	0.9479
565.2	0.94892
565.4	0.95076
565.6	0.95206
565.8	0.95358
566.0	0.95594
566.2	0.95891
566.4	0.96156
566.6	0.96209
566.8	0.96192
567.0	0.96063
567.2	0.95914
567.4	0.9574
567.6	0.95587
567.8	0.95388
568.0	0.95198
568.2	0.95137
568.4	0.9526
568.6	0.9546
568.8	0.95661
569.0	0.95826
569.2	0.95979
569.4	0.96223
569.6	0.96381
569.8	0.96414
570.0	0.96354
570.2	0.96137
570.4	0.95964
570.6	0.95801
570.8	0.95658
571.0	0.95595
571.2	0.95463
571.4	0.95464
571.6	0.95614
571.8	0.95841
572.0	0.96115
572.2	0.9627
572.4	0.96433
572.6	0.96491
572.8	0.96528
573.0	0.96505
573.2	0.96334
573.4	0.96088
573.6	0.9577
573.8	0.95542
574.0	0.95382
574.2	0.95317
574.4	0.95249
574.6	0.95226
574.8	0.95311
575.0	0.9552
575.2	0.95752
575.4	0.95971
575.6	0.96079
575.8	0.96065
576.0	0.96066
576.2	0.96022
576.4	0.95979
576.6	0.95778
576.8	0.95576
577.0	0.95347
577.2	0.95262
577.4	0.95325
577.6	0.95412
577.8	0.9546
578.0	0.95587
578.2	0.95808
578.4	0.96052
578.6	0.96277
578.8	0.96398
579.0	0.96421
579.2	0.96301
579.4	0.96184
579.6	0.96043
579.8	0.95901
580.0	0.95726
580.2	0.95449
580.4	0.95283
580.6	0.95175
580.8	0.95313
581.0	0.95471
581.2	0.95639
581.4	0.95785
581.6	0.95968
581.8	0.96179
582.0	0.96355
582.2	0.96468
582.4	0.96418
582.6	0.96269
582.8	0.96044
583.0	0.95865
583.2	0.95662
583.4	0.95522
583.6	0.95361
583.8	0.95207
584.0	0.9518
584.2	0.95331
584.4	0.9557
584.6	0.9579
584.8	0.95959
585.0	0.9611
585.2	0.96265
585.4	0.96368
585.6	0.96432
585.8	0.96354
586.0	0.96212
586.2	0.95953
586.4	0.95679
586.6	0.95483
586.8	0.95378
587.0	0.95266
587.2	0.95223
587.4	0.95108
587.6	0.95145
587.8	0.95323
588.0	0.95464
588.2	0.9568
588.4	0.95701
588.6	0.95724
588.8	0.95754
589.0	0.95731
589.2	0.95694
589.4	0.95605
589.6	0.95464
589.8	0.9528
590.0	0.95146
590.2	0.95206
590.4	0.95304
590.6	0.95439
590.8	0.95532
591.0	0.95666
591.2	0.95866
591.4	0.96108
591.6	0.96298
591.8	0.96456
592.0	0.96428
592.2	0.96338
592.4	0.96134
592.6	0.95988
592.8	0.95817
593.0	0.95635
593.2	0.95454
593.4	0.9528
593.6	0.95208
593.8	0.95252
594.0	0.95364
594.2	0.95615
594.4	0.95848
594.6	0.96072
594.8	0.96326
595.0	0.9656
595.2	0.96798
595.4	0.96862
595.6	0.96897
595.8	0.96783
596.0	0.96545
596.2	0.96323
596.4	0.96127
596.6	0.95948
596.8	0.95798
597.0	0.95639
597.2	0.95514
597.4	0.95476
597.6	0.95561
597.8	0.95708
598.0	0.95905
598.2	0.96007
598.4	0.96084
598.6	0.96221
598.8	0.9626
599.0	0.96289
599.2	0.96217
599.4	0.96124
599.6	0.95933
599.8	0.95732
600.0	0.95527
600.2	0.95459
600.4	0.95398
600.6	0.95452
600.8	0.95399
601.0	0.95447
601.2	0.95531
601.4	0.95715
601.6	0.9588
601.8	0.96059
602.0	0.96094
602.2	0.96103
602.4	0.9602
602.6	0.95939
602.8	0.95893
603.0	0.95775
603.2	0.95685
603.4	0.95518
603.6	0.95352
603.8	0.95265
604.0	0.95337
604.2	0.95434
604.4	0.95593
604.6	0.95708
604.8	0.95828
605.0	0.95949
605.2	0.96137
605.4	0.96288
605.6	0.96379
605.8	0.96401
606.0	0.96332
606.2	0.96208
606.4	0.9607
606.6	0.95919
606.8	0.95834
607.0	0.95744
607.2	0.95691
607.4	0.95659
607.6	0.95637
607.8	0.95728
608.0	0.95925
608.2	0.961
608.4	0.96305
608.6	0.96495
608.8	0.96567
609.0	0.96588
609.2	0.96627
609.4	0.9667
609.6	0.96574
609.8	0.96449
610.0	0.96266
610.2	0.96019
610.4	0.95827
610.6	0.95721
610.8	0.95649
611.0	0.95632
611.2	0.95657
611.4	0.95733
611.6	0.95826
611.8	0.95956
612.0	0.96188
612.2	0.96334
612.4	0.96482
612.6	0.96581
612.8	0.96538
613.0	0.9649
613.2	0.96349
613.4	0.96259
613.6	0.96082
613.8	0.95925
614.0	0.95767
614.2	0.95579
614.4	0.95424
614.6	0.95369
614.8	0.95449
615.0	0.9559
615.2	0.95789
615.4	0.95897
615.6	0.96006
615.8	0.96128
616.0	0.96269
616.2	0.9638
616.4	0.96505
616.6	0.96453
616.8	0.96403
617.0	0.96141
617.2	0.95933
617.4	0.95788
617.6	0.95599
617.8	0.95488
618.0	0.95399
618.2	0.95244
618.4	0.95258
618.6	0.95292
618.8	0.95401
619.0	0.95625
619.2	0.95829
619.4	0.96007
619.6	0.96114
619.8	0.96213
620.0	0.96295
620.2	0.9637
620.4	0.9635
620.6	0.96371
620.8	0.96233
621.0	0.96086
621.2	0.9588
621.4	0.95654
621.6	0.95518
621.8	0.95529
622.0	0.95561
622.2	0.95546
622.4	0.95556
622.6	0.956
622.8	0.95645
623.0	0.95818
623.2	0.96035
623.4	0.9626
623.6	0.96384
623.8	0.96368
624.0	0.96354
624.2	0.96301
624.4	0.96232
624.6	0.96223
624.8	0.96123
625.0	0.96062
625.2	0.95987
625.4	0.95826
625.6	0.95762
625.8	0.95719
626.0	0.958
626.2	0.95904
626.4	0.96043
626.6	0.96114
626.8	0.96148
627.0	0.96166
627.2	0.96214
627.4	0.96301
627.6	0.96324
627.8	0.96257
628.0	0.96235
628.2	0.96111
628.4	0.95904
628.6	0.9571
628.8	0.95587
629.0	0.95577
629.2	0.9556
629.4	0.9557
629.6	0.95524
629.8	0.95565
630.0	0.95526
630.2	0.95691
630.4	0.95814
630.6	0.95975
630.8	0.96111
631.0	0.96194
631.2	0.9612
631.4	0.96167
631.6	0.96068
631.8	0.95986
632.0	0.95923
632.2	0.95895
632.4	0.95768
632.6	0.95587
632.8	0.95413
633.0	0.95298
633.2	0.95259
633.4	0.95294
633.6	0.95377
633.8	0.9546
634.0	0.95531
634.2	0.95593
634.4	0.95655
634.6	0.95711
634.8	0.95813
635.0	0.95923
635.2	0.95945
635.4	0.959
635.6	0.95837
635.8	0.95715
636.0	0.95564
636.2	0.95478
636.4	0.95475
636.6	0.95413
636.8	0.95453
637.0	0.95388
637.2	0.95361
637.4	0.95381
637.6	0.95474
637.8	0.95688
638.0	0.95885
638.2	0.9605
638.4	0.9617
638.6	0.96225
638.8	0.96273
639.0	0.96263
639.2	0.96286
639.4	0.96258
639.6	0.96251
639.8	0.96239
640.0	0.96125
640.2	0.96016
640.4	0.95879
640.6	0.95754
640.8	0.95766
641.0	0.95774
641.2	0.95864
641.4	0.95887
641.6	0.95969
641.8	0.95998
642.0	0.96018
642.2	0.96033
642.4	0.96114
642.6	0.96181
642.8	0.96218
643.0	0.96148
643.2	0.96091
643.4	0.95918
643.6	0.95723
643.8	0.95604
644.0	0.95472
644.2	0.95409
644.4	0.95389
644.6	0.95383
644.8	0.95287
645.0	0.95295
645.2	0.95301
645.4	0.95429
645.6	0.95562
645.8	0.95757
646.0	0.95917
646.2	0.95981
646.4	0.96088
646.6	0.96063
646.8	0.96099
647.0	0.96077
647.2	0.96077
647.4	0.96025
647.6	0.95917
647.8	0.95745
648.0	0.95564
648.2	0.95342
648.4	0.9515
648.6	0.95063
648.8	0.95069
649.0	0.95086
649.2	0.95235
649.4	0.95256
649.6	0.95343
649.8	0.95412
650.0	0.95552
650.2	0.95681
650.4	0.9587
650.6	0.96011
650.8	0.96138
651.0	0.96198
651.2	0.96152
651.4	0.96001
651.6	0.95944
651.8	0.95768
652.0	0.95781
652.2	0.95732
652.4	0.95676
652.6	0.95595
652.8	0.95467
653.0	0.95446
653.2	0.95406
653.4	0.95511
653.6	0.95662
653.8	0.95813
654.0	0.95952
654.2	0.96093
654.4	0.96231
654.6	0.96302
654.8	0.96265
655.0	0.96347
655.2	0.96398
655.4	0.96345
655.6	0.96327
655.8	0.96198
656.0	0.96059
656.2	0.95926
656.4	0.95703
656.6	0.9555
656.8	0.95483
657.0	0.95514
657.2	0.95564
657.4	0.95611
657.6	0.95664
657.8	0.95689
658.0	0.95816
658.2	0.95879
658.4	0.96008
658.6	0.96217
658.8	0.96324
659.0	0.96397
659.2	0.96391
659.4	0.96306
659.6	0.96197
659.8	0.96026
660.0	0.959
660.2	0.95788
660.4	0.95704
660.6	0.95637
660.8	0.95507
661.0	0.95393
661.2	0.95196
661.4	0.95117
661.6	0.95184
661.8	0.95215
662.0	0.95409
662.2	0.95572
662.4	0.95731
662.6	0.95853
662.8	0.9594
663.0	0.95981
663.2	0.96012
663.4	0.96014
663.6	0.96073
663.8	0.96038
664.0	0.95952
664.2	0.95867
664.4	0.9571
664.6	0.95414
664.8	0.95186
665.0	0.95065
665.2	0.94975
665.4	0.94956
665.6	0.95002
665.8	0.95067
666.0	0.95096
666.2	0.95123
666.4	0.95199
666.6	0.95293
666.8	0.95441
667.0	0.9564
667.2	0.9589
667.4	0.96
667.6	0.96113
667.8	0.96155
668.0	0.96101
668.2	0.95997
668.4	0.95934
668.6	0.95786
668.8	0.9571
669.0	0.9563
669.2	0.95534
669.4	0.9541
669.6	0.95238
669.8	0.95135
670.0	0.95056
670.2	0.95108
670.4	0.95219
670.6	0.95318
670.8	0.95547
671.0	0.95746
671.2	0.95853
671.4	0.95978
671.6	0.96076
671.8	0.96194
672.0	0.96279
672.2	0.96311
672.4	0.9638
672.6	0.96421
672.8	0.96336
673.0	0.96266
673.2	0.9624
673.4	0.96138
673.6	0.95993
673.8	0.95871
674.0	0.95718
674.2	0.9558
674.4	0.95474
674.6	0.95401
674.8	0.95335
675.0	0.95315
675.2	0.95338
675.4	0.954
675.6	0.9547
675.8	0.95586
676.0	0.95661
676.2	0.9577
676.4	0.95819
676.6	0.95922
676.8	0.9591
677.0	0.95944
677.2	0.95879
677.4	0.95789
677.6	0.95691
677.8	0.95623
678.0	0.95469
678.2	0.95333
678.4	0.95157
678.6	0.95041
678.8	0.94965
679.0	0.94891
679.2	0.94874
679.4	0.94881
679.6	0.94916
679.8	0.95008
680.0	0.95112
680.2	0.95257
680.4	0.954
680.6	0.95531
680.8	0.95674
681.0	0.95767
681.2	0.95852
681.4	0.95906
681.6	0.95911
681.8	0.95855
682.0	0.9581
682.2	0.95702
682.4	0.95563
682.6	0.95448
682.8	0.95316
683.0	0.95188
683.2	0.95061
683.4	0.94936
683.6	0.94852
683.8	0.94784
684.0	0.94816
684.2	0.94836
684.4	0.94903
684.6	0.94985
684.8	0.95056
685.0	0.95198
685.2	0.95292
685.4	0.95401
685.6	0.95522
685.8	0.95578
686.0	0.95655
686.2	0.95668
686.4	0.95688
686.6	0.95664
686.8	0.9562
687.0	0.95568
687.2	0.95536
687.4	0.95448
687.6	0.95398
687.8	0.95371
688.0	0.95328
688.2	0.95307
688.4	0.95352
688.6	0.95372
688.8	0.95469
689.0	0.95514
689.2	0.95613
689.4	0.95743
689.6	0.95867
689.8	0.95948
690.0	0.96006
690.2	0.96075
690.4	0.96107
690.6	0.96096
690.8	0.9607
691.0	0.96011
691.2	0.95919
691.4	0.95832
691.6	0.95717
691.8	0.95592
692.0	0.95477
692.2	0.95363
692.4	0.95264
692.6	0.95193
692.8	0.95152
693.0	0.95142
693.2	0.95167
693.4	0.95198
693.6	0.95268
693.8	0.9535
694.0	0.95467
694.2	0.95559
694.4	0.95673
694.6	0.95773
694.8	0.95819
695.0	0.95851
695.2	0.95915
695.4	0.9587
695.6	0.95822
695.8	0.95782
696.0	0.95671
696.2	0.95548
696.4	0.95483
696.6	0.95357
696.8	0.95252
697.0	0.95154
697.2	0.95078
697.4	0.95045
697.6	0.95003
697.8	0.94991
698.0	0.95038
698.2	0.95095
698.4	0.95177
698.6	0.95288
698.8	0.9538
699.0	0.95481
699.2	0.95614
699.4	0.9571
699.6	0.95772
699.8	0.95799
700.0	0.95871
700.2	0.95828
700.4	0.95806
700.6	0.95748
700.8	0.95648
701.0	0.95538
701.2	0.9541
701.4	0.95267
701.6	0.95164
701.8	0.95032
702.0	0.94907
702.2	0.94853
702.4	0.94781
702.6	0.94776
702.8	0.94738
703.0	0.94751
703.2	0.94816
703.4	0.94895
703.6	0.94915
703.8	0.95012
704.0	0.95089
704.2	0.95161
704.4	0.95258
704.6	0.95308
704.8	0.95375
705.0	0.95395
705.2	0.95356
705.4	0.9539
705.6	0.95376
705.8	0.95326
706.0	0.95276
706.2	0.9523
706.4	0.95166
706.6	0.95161
706.8	0.9511
707.0	0.95105
707.2	0.95128
707.4	0.95126
707.6	0.95181
707.8	0.95226
708.0	0.95275
708.2	0.95351
708.4	0.95444
708.6	0.95454
708.8	0.95513
709.0	0.95542
709.2	0.95573
709.4	0.9559
709.6	0.9559
709.8	0.95556
710.0	0.95484
710.2	0.95451
710.4	0.95372
710.6	0.95275
710.8	0.95167
711.0	0.95129
711.2	0.9504
711.4	0.94988
711.6	0.94969
711.8	0.94946
712.0	0.94957
712.2	0.94969
712.4	0.95012
712.6	0.95071
712.8	0.9518
713.0	0.95308
713.2	0.95356
713.4	0.95502
713.6	0.95572
713.8	0.95676
714.0	0.95734
714.2	0.95803
714.4	0.95847
714.6	0.95854
714.8	0.95833
715.0	0.95828
715.2	0.95766
715.4	0.95702
715.6	0.95612
715.8	0.9561
716.0	0.95516
716.2	0.9546
716.4	0.95451
716.6	0.95421
716.8	0.9541
717.0	0.95433
717.2	0.95461
717.4	0.95522
717.6	0.95554
717.8	0.9564
718.0	0.95755
718.2	0.95808
718.4	0.95903
718.6	0.95958
718.8	0.96026
719.0	0.9605
719.2	0.96056
719.4	0.9604
719.6	0.96007
719.8	0.95943
720.0	0.95853
720.2	0.95784
720.4	0.95685
720.6	0.95558
720.8	0.95456
721.0	0.9534
721.2	0.95264
721.4	0.95208
721.6	0.95143
721.8	0.95147
722.0	0.95169
722.2	0.95207
722.4	0.95291
722.6	0.95396
722.8	0.95484
723.0	0.95602
723.2	0.95737
723.4	0.95875
723.6	0.95971
723.8	0.96091
724.0	0.96165
724.2	0.96242
724.4	0.96253
724.6	0.96271
724.8	0.9622
725.0	0.96136
725.2	0.96086
725.4	0.95989
725.6	0.95866
725.8	0.95729
726.0	0.9563
726.2	0.95531
726.4	0.9542
726.6	0.95352
726.8	0.95339
727.0	0.95296
727.2	0.95329
727.4	0.9537
727.6	0.9548
727.8	0.95558
728.0	0.9572
728.2	0.95847
728.4	0.96033
728.6	0.96203
728.8	0.96385
729.0	0.96505
729.2	0.96648
729.4	0.96735
729.6	0.96762
729.8	0.96821
730.0	0.96784
730.2	0.96747
730.4	0.9663
730.6	0.96544
730.8	0.96392
731.0	0.9626
731.2	0.96085
731.4	0.95931
731.6	0.95794
731.8	0.95644
732.0	0.95503
732.2	0.95422
732.4	0.95337
732.6	0.95332
732.8	0.95302
733.0	0.95294
733.2	0.95358
733.4	0.95438
733.6	0.9551
733.8	0.95644
734.0	0.95736
734.2	0.95827
734.4	0.95966
734.6	0.96041
734.8	0.96097
735.0	0.96139
735.2	0.96159
735.4	0.96194
735.6	0.96162
735.8	0.96127
736.0	0.96036
736.2	0.95933
736.4	0.9585
736.6	0.95734
736.8	0.95653
737.0	0.95561
737.2	0.95491
737.4	0.9543
737.6	0.95344
737.8	0.95324
738.0	0.95307
738.2	0.95357
738.4	0.95442
738.6	0.95507
738.8	0.95638
739.0	0.95669
739.2	0.9573
739.4	0.95842
739.6	0.95853
739.8	0.95938
740.0	0.95965
740.2	0.95985
740.4	0.95989
740.6	0.95922
740.8	0.95885
741.0	0.95833
741.2	0.95729
741.4	0.95644
741.6	0.95603
741.8	0.95494
742.0	0.95421
742.2	0.95379
742.4	0.95379
742.6	0.95319
742.8	0.95318
743.0	0.95371
743.2	0.95413
743.4	0.95483
743.6	0.95579
743.8	0.95638
744.0	0.95749
744.2	0.95829
744.4	0.95967
744.6	0.96019
744.8	0.96132
745.0	0.96161
745.2	0.96259
745.4	0.96204
745.6	0.96281
745.8	0.96286
746.0	0.96263
746.2	0.96148
746.4	0.96068
746.6	0.9609
746.8	0.95959
747.0	0.95879
747.2	0.95863
747.4	0.9575
747.6	0.95712
747.8	0.95716
748.0	0.95688
748.2	0.9566
748.4	0.95695
748.6	0.95755
748.8	0.95798
749.0	0.95857
749.2	0.95914
749.4	0.96056
749.6	0.96162
749.8	0.96235
750.0	0.96283
750.2	0.96342
750.4	0.96385
750.6	0.96457
750.8	0.96419
751.0	0.96438
751.2	0.96447
751.4	0.96375
751.6	0.96363
751.8	0.96246
752.0	0.96145
752.2	0.96075
752.4	0.95967
752.6	0.95926
752.8	0.95848
753.0	0.95801
753.2	0.95785
753.4	0.95764
753.6	0.95782
753.8	0.95785
754.0	0.95812
754.2	0.95805
754.4	0.95936
754.6	0.96073
754.8	0.96119
755.0	0.96204
755.2	0.9628
755.4	0.96401
755.6	0.96481
755.8	0.9652
756.0	0.96582
756.2	0.96616
756.4	0.96569
756.6	0.96596
756.8	0.96507
757.0	0.96435
757.2	0.96354
757.4	0.96253
757.6	0.96166
757.8	0.96016
758.0	0.95913
758.2	0.95825
758.4	0.95699
758.6	0.95601
758.8	0.95593
759.0	0.95518
759.2	0.95502
759.4	0.95494
759.6	0.95564
759.8	0.95581
760.0	0.95648
760.2	0.95674
760.4	0.9586
760.6	0.95912
760.8	0.95991
761.0	0.96077
761.2	0.96217
761.4	0.96306
761.6	0.96391
761.8	0.96427
762.0	0.96458
762.2	0.96528
762.4	0.96504
762.6	0.9651
762.8	0.9636
763.0	0.96358
763.2	0.96198
763.4	0.96216
763.6	0.96096
763.8	0.96025
764.0	0.959
764.2	0.95813
764.4	0.95797
764.6	0.9562
764.8	0.95679
765.0	0.95602
765.2	0.95655
765.4	0.95688
765.6	0.95707
765.8	0.95778
766.0	0.95798
766.2	0.95925
766.4	0.95997
766.6	0.96114
766.8	0.96186
767.0	0.96307
767.2	0.96371
767.4	0.96453
767.6	0.96492
767.8	0.96538
768.0	0.9652
768.2	0.96517
768.4	0.9649
768.6	0.96382
768.8	0.96368
769.0	0.96225
769.2	0.96188
769.4	0.96138
769.6	0.96045
769.8	0.95956
770.0	0.95893
770.2	0.95844
770.4	0.95742
770.6	0.95784
770.8	0.95738
771.0	0.95801
771.2	0.95872
771.4	0.95925
771.6	0.95953
771.8	0.96075
772.0	0.96146
772.2	0.96291
772.4	0.96378
772.6	0.96508
772.8	0.96575
773.0	0.96729
773.2	0.96848
773.4	0.96852
773.6	0.9692
773.8	0.96952
774.0	0.96936
774.2	0.96926
774.4	0.96981
774.6	0.96951
774.8	0.96825
775.0	0.96789
775.2	0.96695
775.4	0.9659
775.6	0.96586
775.8	0.96566
776.0	0.96426
776.2	0.96395
776.4	0.96405
776.6	0.96362
776.8	0.96374
777.0	0.96391
777.2	0.96426
777.4	0.96497
777.6	0.96549
777.8	0.96567
778.0	0.96639
778.2	0.96752
778.4	0.96796
778.6	0.96833
778.8	0.96917
779.0	0.96969
779.2	0.9699
779.4	0.96955
779.6	0.96998
779.8	0.96893
780.0	0.96855
780.2	0.9682
780.4	0.9675
780.6	0.96605
780.8	0.96501
781.0	0.96371
781.2	0.96264
781.4	0.96177
781.6	0.96105
781.8	0.96019
782.0	0.95936
782.2	0.9583
782.4	0.95832
782.6	0.95776
782.8	0.95791
783.0	0.95873
783.2	0.95808
783.4	0.95976
783.6	0.96044
783.8	0.96096
784.0	0.9621
784.2	0.9629
784.4	0.96454
784.6	0.96536
784.8	0.96599
785.0	0.96679
785.2	0.96751
785.4	0.96823
785.6	0.96807
785.8	0.96811
786.0	0.96816
786.2	0.96805
786.4	0.96649
786.6	0.9665
786.8	0.96575
787.0	0.96435
787.2	0.96349
787.4	0.96333
787.6	0.96188
787.8	0.96164
788.0	0.95999
788.2	0.95986
788.4	0.96001
788.6	0.9591
788.8	0.95922
789.0	0.95903
789.2	0.9603
789.4	0.96057
789.6	0.96165
789.8	0.96218
790.0	0.96329
790.2	0.96448
790.4	0.96602
790.6	0.96731
790.8	0.96872
791.0	0.96944
791.2	0.9706
791.4	0.97122
791.6	0.97149
791.8	0.97221
792.0	0.97252
792.2	0.97232
792.4	0.97228
792.6	0.97229
792.8	0.97142
793.0	0.97091
793.2	0.97072
793.4	0.97018
793.6	0.96839
793.8	0.96835
794.0	0.96773
794.2	0.96702
794.4	0.96653
794.6	0.96635
794.8	0.96585
795.0	0.96287
795.2	0.96288
795.4	0.963
795.6	0.96372
795.8	0.96438
796.0	0.96468
796.2	0.96571
796.4	0.96695
796.6	0.96784
796.8	0.96865
797.0	0.96978
797.2	0.97067
797.4	0.97135
797.6	0.97153
797.8	0.9723
798.0	0.9725
798.2	0.97241
798.4	0.97197
798.6	0.97163
798.8	0.97054
799.0	0.97021
799.2	0.96947
799.4	0.96826
799.6	0.9671
799.8	0.96604
800.0	0.96476
800.2	0.96393
800.4	0.96279
800.6	0.9618
800.8	0.96109
801.0	0.96029
801.2	0.95942
801.4	0.95975
801.6	0.95957
801.8	0.95944
802.0	0.95991
802.2	0.9604
802.4	0.96061
802.6	0.96118
802.8	0.96229
803.0	0.96372
803.2	0.96477
803.4	0.96534
803.6	0.96582
803.8	0.96697
804.0	0.96645
804.2	0.96641
804.4	0.96691
804.6	0.96654
804.8	0.96586
805.0	0.96489
805.2	0.9643
805.4	0.96365
805.6	0.96334
805.8	0.9625
806.0	0.96138
806.2	0.96073
806.4	0.96064
806.6	0.95968
806.8	0.95941
807.0	0.95875
807.2	0.95867
807.4	0.95932
807.6	0.95955
807.8	0.95991
808.0	0.95991
808.2	0.96104
808.4	0.96197
808.6	0.96281
808.8	0.96328
809.0	0.96502
809.2	0.96608
809.4	0.96639
809.6	0.9669
809.8	0.96801
810.0	0.96918
810.2	0.96925
810.4	0.96979
810.6	0.96917
810.8	0.96964
811.0	0.96972
811.2	0.96887
811.4	0.96836
811.6	0.96799
811.8	0.9676
812.0	0.9666
812.2	0.96567
812.4	0.96451
812.6	0.96363
812.8	0.96277
813.0	0.96202
813.2	0.96191
813.4	0.96114
813.6	0.96078
813.8	0.96014
814.0	0.9605
814.2	0.96098
814.4	0.96203
814.6	0.96209
814.8	0.96263
815.0	0.96404
815.2	0.96401
815.4	0.96497
815.6	0.96525
815.8	0.96652
816.0	0.96711
816.2	0.96808
816.4	0.96922
816.6	0.96951
816.8	0.96931
817.0	0.97043
817.2	0.97097
817.4	0.97019
817.6	0.96978
817.8	0.96991
818.0	0.96895
818.2	0.96872
818.4	0.96859
818.6	0.9683
818.8	0.96735
819.0	0.96649
819.2	0.96586
819.4	0.96556
819.6	0.96495
819.8	0.96429
820.0	0.96392
820.2	0.96414
820.4	0.96422
820.6	0.96443
820.8	0.96438
821.0	0.96546
821.2	0.96584
821.4	0.96703
821.6	0.96711
821.8	0.96773
822.0	0.96881
822.2	0.96984
822.4	0.97094
822.6	0.97077
822.8	0.97141
823.0	0.97215
823.2	0.97305
823.4	0.97285
823.6	0.97331
823.8	0.97429
824.0	0.97257
824.2	0.97182
824.4	0.97203
824.6	0.97089
824.8	0.97046
825.0	0.97004
825.2	0.96948
825.4	0.96699
825.6	0.96675
825.8	0.96645
826.0	0.96546
826.2	0.96482
826.4	0.96427
826.6	0.9637
826.8	0.96306
827.0	0.96367
827.2	0.96332
827.4	0.96293
827.6	0.96344
827.8	0.96392
828.0	0.96539
828.2	0.96585
828.4	0.966
828.6	0.96695
828.8	0.96816
829.0	0.96946
829.2	0.96943
829.4	0.96953
829.6	0.97121
829.8	0.97134
830.0	0.97173
830.2	0.97168
830.4	0.97158
830.6	0.97158
830.8	0.97159
831.0	0.9703
831.2	0.96962
831.4	0.96923
831.6	0.96796
831.8	0.96703
832.0	0.96536
832.2	0.96436
832.4	0.96375
832.6	0.96214
832.8	0.96167
833.0	0.96021
833.2	0.95916
833.4	0.95876
833.6	0.95791
833.8	0.95765
834.0	0.95754
834.2	0.9581
834.4	0.95757
834.6	0.95854
834.8	0.9594
835.0	0.96003
835.2	0.96084
835.4	0.96168
835.6	0.96295
835.8	0.96363
836.0	0.96456
836.2	0.96615
836.4	0.96717
836.6	0.9681
836.8	0.96917
837.0	0.96952
837.2	0.97067
837.4	0.97098
837.6	0.97063
837.8	0.97147
838.0	0.97158
838.2	0.97071
838.4	0.9708
838.6	0.97005
838.8	0.96864
839.0	0.96859
839.2	0.96745
839.4	0.96651
839.6	0.96604
839.8	0.96525
840.0	0.96357
840.2	0.96344
840.4	0.96241
840.6	0.96174
840.8	0.96185
841.0	0.96156
841.2	0.9616
841.4	0.96088
841.6	0.96101
841.8	0.96212
842.0	0.96218
842.2	0.96292
842.4	0.9635
842.6	0.9637
842.8	0.96484
843.0	0.96572
843.2	0.96659
843.4	0.96643
843.6	0.96724
843.8	0.96751
844.0	0.96881
844.2	0.96943
844.4	0.97017
844.6	0.97009
844.8	0.96992
845.0	0.96997
845.2	0.96949
845.4	0.96926
845.6	0.9686
845.8	0.9686
846.0	0.9679
846.2	0.96757
846.4	0.96715
846.6	0.96653
846.8	0.96579
847.0	0.96546
847.2	0.96482
847.4	0.96407
847.6	0.96433
847.8	0.96424
848.0	0.9636
848.2	0.96367
848.4	0.96393
848.6	0.9644
848.8	0.96461
849.0	0.96478
849.2	0.96545
849.4	0.96677
849.6	0.96713
849.8	0.96743
850.0	0.96854
850.2	0.96874
850.4	0.96915
850.6	0.97
850.8	0.97047
851.0	0.97102
851.2	0.97171
851.4	0.97148
851.6	0.97184
851.8	0.97165
852.0	0.97086
852.2	0.97083
852.4	0.97047
852.6	0.97101
852.8	0.96986
853.0	0.96889
853.2	0.96819
853.4	0.96776
853.6	0.96728
853.8	0.96666
854.0	0.96619
854.2	0.96527
854.4	0.96482
854.6	0.96372
854.8	0.96381
855.0	0.96422
855.2	0.9635
855.4	0.96375
855.6	0.96386
855.8	0.96409
856.0	0.96433
856.2	0.96423
856.4	0.9648
856.6	0.96508
856.8	0.96632
857.0	0.96664
857.2	0.9672
857.4	0.96762
857.6	0.96808
857.8	0.96873
858.0	0.96913
858.2	0.96893
858.4	0.96946
858.6	0.96947
858.8	0.96939
859.0	0.96922
859.2	0.96889
859.4	0.96825
859.6	0.96794
859.8	0.96728
860.0	0.96682
860.2	0.96576
860.4	0.9651
860.6	0.96463
860.8	0.96458
861.0	0.96323
861.2	0.96212
861.4	0.96184
861.6	0.96159
861.8	0.96096
862.0	0.96056
862.2	0.96055
862.4	0.96068
862.6	0.96039
862.8	0.96098
863.0	0.96119
863.2	0.96115
863.4	0.96192
863.6	0.96281
863.8	0.9634
864.0	0.96364
864.2	0.96447
864.4	0.96601
864.6	0.96653
864.8	0.96739
865.0	0.96798
865.2	0.9681
865.4	0.96954
865.6	0.9702
865.8	0.97029
866.0	0.97009
866.2	0.97019
866.4	0.97014
866.6	0.97028
866.8	0.96947
867.0	0.96915
867.2	0.96934
867.4	0.96865
867.6	0.96828
867.8	0.96732
868.0	0.96696
868.2	0.96716
868.4	0.96566
868.6	0.96596
868.8	0.96516
869.0	0.96435
869.2	0.96323
869.4	0.96318
869.6	0.96236
869.8	0.96203
870.0	0.96142
870.2	0.9612
870.4	0.96118
870.6	0.96135
870.8	0.96158
871.0	0.96238
871.2	0.96265
871.4	0.96268
871.6	0.96339
871.8	0.96401
872.0	0.96402
872.2	0.96499
872.4	0.96629
872.6	0.96747
872.8	0.96826
873.0	0.96784
873.2	0.96902
873.4	0.9691
873.6	0.9702
873.8	0.97027
874.0	0.97056
874.2	0.97048
874.4	0.97048
874.6	0.97036
874.8	0.97006
875.0	0.96942
875.2	0.96928
875.4	0.96908
875.6	0.96866
875.8	0.96801
876.0	0.96707
876.2	0.96659
876.4	0.96653
876.6	0.96542
876.8	0.96518
877.0	0.96469
877.2	0.96403
877.4	0.96392
877.6	0.96363
877.8	0.96335
878.0	0.96366
878.2	0.9634
878.4	0.96359
878.6	0.96368
878.8	0.9645
879.0	0.96471
879.2	0.96515
879.4	0.96651
879.6	0.96709
879.8	0.9672
880.0	0.96773
880.2	0.96804
880.4	0.96829
880.6	0.96868
880.8	0.96997
881.0	0.97095
881.2	0.97062
881.4	0.97007
881.6	0.97013
881.8	0.97044
882.0	0.97027
882.2	0.96989
882.4	0.96924
882.6	0.96906
882.8	0.9688
883.0	0.96727
883.2	0.96733
883.4	0.96677
883.6	0.96565
883.8	0.96531
884.0	0.96414
884.2	0.96388
884.4	0.96346
884.6	0.96347
884.8	0.96323
885.0	0.96257
885.2	0.96185
885.4	0.96189
885.6	0.96196
885.8	0.96188
886.0	0.96246
886.2	0.9625
886.4	0.96267
886.6	0.96317
886.8	0.96355
887.0	0.96414
887.2	0.96476
887.4	0.96543
887.6	0.96576
887.8	0.96624
888.0	0.96758
888.2	0.96772
888.4	0.9681
888.6	0.9688
888.8	0.96883
889.0	0.96852
889.2	0.96857
889.4	0.96875
889.6	0.96898
889.8	0.969
890.0	0.9681
890.2	0.96725
890.4	0.96736
890.6	0.96703
890.8	0.96672
891.0	0.96591
891.2	0.96504
891.4	0.96444
891.6	0.96409
891.8	0.96374
892.0	0.96236
892.2	0.96178
892.4	0.96167
892.6	0.96132
892.8	0.96105
893.0	0.96103
893.2	0.96101
893.4	0.96082
893.6	0.96092
893.8	0.96132
894.0	0.96171
894.2	0.96237
894.4	0.96252
894.6	0.96288
894.8	0.96352
895.0	0.96433
895.2	0.96454
895.4	0.96583
895.6	0.96627
895.8	0.96731
896.0	0.96695
896.2	0.96796
896.4	0.96816
896.6	0.96856
896.8	0.96859
897.0	0.96848
897.2	0.96931
897.4	0.96956
897.6	0.96881
897.8	0.96853
898.0	0.96938
898.2	0.96805
898.4	0.968
898.6	0.9673
898.8	0.96621
899.0	0.96584
899.2	0.96524
899.4	0.96392
899.6	0.9631
899.8	0.96256
900.0	0.9628
900.2	0.96159
900.4	0.96113
900.6	0.96067
900.8	0.96111
901.0	0.96126
901.2	0.96028
901.4	0.9605
901.6	0.96154
901.8	0.96075
902.0	0.96173
902.2	0.96241
902.4	0.96207
902.6	0.96248
902.8	0.96338
903.0	0.96442
903.2	0.96501
903.4	0.96511
903.6	0.96668
903.8	0.96716
904.0	0.96792
904.2	0.96825
904.4	0.96875
904.6	0.96911
904.8	0.96979
905.0	0.97042
905.2	0.97056
905.4	0.9706
905.6	0.97074
905.8	0.97039
906.0	0.97019
906.2	0.96983
906.4	0.96932
906.6	0.96913
906.8	0.96914
907.0	0.96757
907.2	0.9673
907.4	0.96622
907.6	0.96595
907.8	0.96522
908.0	0.96479
908.2	0.96368
908.4	0.96312
908.6	0.96342
908.8	0.962
909.0	0.96235
909.2	0.96202
909.4	0.96206
909.6	0.96225
909.8	0.96151
910.0	0.96188
910.2	0.96138
910.4	0.96254
910.6	0.9626
910.8	0.96319
911.0	0.96322
911.2	0.96424
911.4	0.96525
911.6	0.96578
911.8	0.96634
912.0	0.9661
912.2	0.96663
912.4	0.9675
912.6	0.96742
912.8	0.96763
913.0	0.96789
913.2	0.96818
913.4	0.96861
913.6	0.96848
913.8	0.96781
914.0	0.96831
914.2	0.96787
914.4	0.96765
914.6	0.96666
914.8	0.9661
915.0	0.96553
915.2	0.96572
915.4	0.96431
915.6	0.96331
915.8	0.96232
916.0	0.96253
916.2	0.96195
916.4	0.96137
916.6	0.96056
916.8	0.96028
917.0	0.95953
917.2	0.95909
917.4	0.95897
917.6	0.95901
917.8	0.95945
918.0	0.95915
918.2	0.95914
918.4	0.95975
918.6	0.95986
918.8	0.96006
919.0	0.96049
919.2	0.9619
919.4	0.96245
919.6	0.96313
919.8	0.96337
920.0	0.9646
920.2	0.96509
920.4	0.96572
920.6	0.96631
920.8	0.96703
921.0	0.96764
921.2	0.96827
921.4	0.96897
921.6	0.96876
921.8	0.9686
922.0	0.96901
922.2	0.96926
922.4	0.96884
922.6	0.96852
922.8	0.96852
923.0	0.96818
923.2	0.96709
923.4	0.96688
923.6	0.96582
923.8	0.96504
924.0	0.96457
924.2	0.96321
924.4	0.9629
924.6	0.96231
924.8	0.96134
925.0	0.96072
925.2	0.96035
925.4	0.95949
925.6	0.95914
925.8	0.95907
926.0	0.95847
926.2	0.95823
926.4	0.95811
926.6	0.95825
926.8	0.95839
927.0	0.95804
927.2	0.95827
927.4	0.95886
927.6	0.95952
927.8	0.96006
928.0	0.96075
928.2	0.96104
928.4	0.96183
928.6	0.96252
928.8	0.96315
929.0	0.96368
929.2	0.96393
929.4	0.9647
929.6	0.96515
929.8	0.96628
930.0	0.96706
930.2	0.96663
930.4	0.9671
930.6	0.96694
930.8	0.96812
931.0	0.96704
931.2	0.96623
931.4	0.96732
931.6	0.96947
931.8	0.96497
932.0	0.96603
932.2	0.96628
932.4	0.9659
932.6	0.96524
932.8	0.96491
933.0	0.96453
933.2	0.9641
933.4	0.9633
933.6	0.96294
933.8	0.96276
934.0	0.96238
934.2	0.96217
934.4	0.96139
934.6	0.9615
934.8	0.962
935.0	0.96202
935.2	0.96181
935.4	0.96177
935.6	0.96161
935.8	0.96287
936.0	0.9629
936.2	0.96365
936.4	0.96413
936.6	0.96458
936.8	0.96508
937.0	0.96567
937.2	0.96575
937.4	0.96667
937.6	0.96739
937.8	0.96749
938.0	0.96769
938.2	0.96866
938.4	0.96949
938.6	0.96962
938.8	0.9694
939.0	0.96963
939.2	0.96984
939.4	0.97016
939.6	0.96973
939.8	0.96968
940.0	0.96923
940.2	0.96917
940.4	0.96847
940.6	0.96788
940.8	0.96735
941.0	0.96688
941.2	0.9658
941.4	0.96523
941.6	0.96458
941.8	0.96435
942.0	0.96373
942.2	0.9633
942.4	0.96267
942.6	0.96207
942.8	0.96158
943.0	0.96177
943.2	0.96117
943.4	0.96126
943.6	0.96107
943.8	0.96051
944.0	0.96082
944.2	0.96048
944.4	0.96125
944.6	0.96149
944.8	0.96207
945.0	0.96216
945.2	0.96272
945.4	0.96337
945.6	0.96376
945.8	0.96447
946.0	0.96537
946.2	0.96544
946.4	0.96674
946.6	0.96679
946.8	0.9671
947.0	0.96771
947.2	0.9681
947.4	0.96854
947.6	0.96838
947.8	0.96895
948.0	0.96891
948.2	0.96844
948.4	0.96852
948.6	0.96887
948.8	0.96825
949.0	0.9676
949.2	0.9671
949.4	0.96663
949.6	0.96589
949.8	0.96562
950.0	0.96505
950.2	0.96441
950.4	0.96333
950.6	0.96247
950.8	0.96199
951.0	0.96114
951.2	0.96058
951.4	0.95988
951.6	0.95938
951.8	0.95878
952.0	0.95855
952.2	0.95798
952.4	0.95774
952.6	0.95801
952.8	0.95786
953.0	0.95763
953.2	0.95793
953.4	0.95774
953.6	0.95807
953.8	0.95836
954.0	0.95885
954.2	0.95906
954.4	0.95988
954.6	0.96019
954.8	0.96106
955.0	0.96164
955.2	0.96202
955.4	0.96231
955.6	0.96302
955.8	0.96377
956.0	0.96398
956.2	0.96439
956.4	0.96462
956.6	0.96516
956.8	0.96516
957.0	0.96544
957.2	0.9652
957.4	0.96489
957.6	0.96485
957.8	0.96473
958.0	0.9647
958.2	0.96385
958.4	0.96344
958.6	0.9634
958.8	0.96286
959.0	0.96171
959.2	0.96131
959.4	0.96036
959.6	0.96014
959.8	0.95965
960.0	0.95865
960.2	0.95823
960.4	0.95796
960.6	0.95717
960.8	0.95653
961.0	0.95574
961.2	0.95557
961.4	0.9558
961.6	0.95552
961.8	0.95569
962.0	0.95554
962.2	0.95574
962.4	0.95624
962.6	0.9569
962.8	0.95664
963.0	0.95714
963.2	0.95761
963.4	0.95841
963.6	0.95936
963.8	0.95998
964.0	0.96015
964.2	0.96083
964.4	0.96171
964.6	0.96226
964.8	0.96325
965.0	0.96388
965.2	0.96451
965.4	0.96501
965.6	0.96528
965.8	0.96585
966.0	0.9659
966.2	0.96626
966.4	0.96627
966.6	0.96667
966.8	0.96613
967.0	0.96626
967.2	0.96656
967.4	0.96599
967.6	0.96577
967.8	0.96536
968.0	0.96471
968.2	0.9644
968.4	0.96337
968.6	0.96361
968.8	0.96245
969.0	0.96182
969.2	0.96172
969.4	0.96093
969.6	0.96062
969.8	0.96024
970.0	0.95944
970.2	0.95941
970.4	0.95856
970.6	0.95813
970.8	0.95812
971.0	0.95818
971.2	0.95817
971.4	0.95844
971.6	0.95803
971.8	0.95789
972.0	0.95905
972.2	0.96034
972.4	0.96084
972.6	0.96114
972.8	0.96174
973.0	0.96278
973.2	0.96311
973.4	0.96384
973.6	0.96435
973.8	0.9649
974.0	0.96567
974.2	0.96607
974.4	0.96627
974.6	0.96684
974.8	0.96718
975.0	0.96742
975.2	0.96788
975.4	0.96773
975.6	0.96776
975.8	0.96823
976.0	0.96793
976.2	0.96731
976.4	0.96728
976.6	0.96755
976.8	0.96668
977.0	0.96627
977.2	0.96573
977.4	0.96507
977.6	0.96441
977.8	0.96396
978.0	0.96365
978.2	0.96278
978.4	0.96215
978.6	0.96179
978.8	0.96117
979.0	0.96055
979.2	0.96013
979.4	0.95999
979.6	0.9593
979.8	0.95927
980.0	0.95957
980.2	0.9592
980.4	0.95878
980.6	0.95925
980.8	0.95917
981.0	0.9591
981.2	0.95979
981.4	0.96068
981.6	0.96067
981.8	0.96118
982.0	0.96207
982.2	0.96271
982.4	0.96279
982.6	0.96336
982.8	0.96409
983.0	0.9648
983.2	0.96539
983.4	0.96579
983.6	0.96615
983.8	0.96698
984.0	0.96716
984.2	0.96741
984.4	0.9672
984.6	0.96819
984.8	0.9683
985.0	0.96832
985.2	0.96854
985.4	0.96819
985.6	0.96772
985.8	0.96771
986.0	0.96724
986.2	0.96643
986.4	0.96596
986.6	0.96552
986.8	0.9648
987.0	0.96406
987.2	0.96308
987.4	0.96321
987.6	0.96199
987.8	0.96173
988.0	0.96109
988.2	0.96014
988.4	0.95906
988.6	0.95873
988.8	0.95799
989.0	0.95714
989.2	0.95696
989.4	0.95714
989.6	0.95682
989.8	0.95651
990.0	0.95688
990.2	0.95599
990.4	0.95595
990.6	0.95652
990.8	0.9569
991.0	0.95656
991.2	0.95723
991.4	0.95779
991.6	0.95809
991.8	0.95898
992.0	0.95937
992.2	0.95953
992.4	0.9604
992.6	0.96143
992.8	0.96115
993.0	0.96202
993.2	0.96266
993.4	0.96287
993.6	0.96368
993.8	0.96431
994.0	0.9646
994.2	0.96492
994.4	0.96526
994.6	0.96547
994.8	0.96536
995.0	0.96512
995.2	0.96496
995.4	0.9653
995.6	0.96485
995.8	0.96462
996.0	0.96341
996.2	0.96338
996.4	0.96285
996.6	0.96254
996.8	0.96147
997.0	0.9612
997.2	0.96073
997.4	0.96006
997.6	0.95946
997.8	0.95892
998.0	0.95761
998.2	0.95775
998.4	0.95702
998.6	0.95643
998.8	0.95602
999.0	0.95542
999.2	0.95514
999.4	0.95504
999.6	0.95486
999.8	0.95453
1000.0	0.95229
1000.2	0.94824
1000.4	0.94857
1000.6	0.94974
1000.8	0.94948
1001.0	0.94976
1001.2	0.9503
1001.4	0.95045
1001.6	0.95141
1001.8	0.95247
1002.0	0.95275
1002.2	0.95282
1002.4	0.95392
1002.6	0.95402
1002.8	0.95427
1003.0	0.95564
1003.2	0.95595
1003.4	0.95638
1003.6	0.95694
1003.8	0.95739
1004.0	0.95709
1004.2	0.95733
1004.4	0.95748
1004.6	0.95755
1004.8	0.95812
1005.0	0.95793
1005.2	0.95729
1005.4	0.95753
1005.6	0.9571
1005.8	0.95682
1006.0	0.95603
1006.2	0.95626
1006.4	0.955
1006.6	0.95416
1006.8	0.95417
1007.0	0.953
1007.2	0.9533
1007.4	0.95243
1007.6	0.95131
1007.8	0.95093
1008.0	0.95044
1008.2	0.94981
1008.4	0.94941
1008.6	0.94938
1008.8	0.94822
1009.0	0.94826
1009.2	0.94799
1009.4	0.94778
1009.6	0.94812
1009.8	0.94783
1010.0	0.94728
1010.2	0.94837
1010.4	0.94847
1010.6	0.94861
1010.8	0.94893
1011.0	0.94976
1011.2	0.94989
1011.4	0.95023
1011.6	0.95104
1011.8	0.95163
1012.0	0.953
1012.2	0.95388
1012.4	0.95371
1012.6	0.95492
1012.8	0.95565
1013.0	0.95593
1013.2	0.95619
1013.4	0.95723
1013.6	0.95792
1013.8	0.95844
1014.0	0.95809
1014.2	0.95858
1014.4	0.96017
1014.6	0.96026
1014.8	0.9598
1015.0	0.95987
1015.2	0.95979
1015.4	0.95982
1015.6	0.95974
1015.8	0.95963
1016.0	0.9588
1016.2	0.95916
1016.4	0.95843
1016.6	0.95741
1016.8	0.9574
1017.0	0.95634
1017.2	0.95605
1017.4	0.9561
1017.6	0.95471
1017.8	0.95377
1018.0	0.95367
1018.2	0.95252
1018.4	0.95191
1018.6	0.95127
1018.8	0.95094
1019.0	0.95038
1019.2	0.95067
1019.4	0.94933
1019.6	0.94927
1019.8	0.94887
1020.0	0.94843
1020.2	0.94901
1020.4	0.94812
1020.6	0.94781
1020.8	0.94844
1021.0	0.94858
1021.2	0.94955
1021.4	0.94937
1021.6	0.94936
1021.8	0.94955
1022.0	0.94996
1022.2	0.95012
1022.4	0.95157
1022.6	0.95211
1022.8	0.95206
1023.0	0.95236
1023.2	0.95301
1023.4	0.95356
1023.6	0.95335
1023.8	0.95393
1024.0	0.95483
1024.2	0.95446
1024.4	0.95524
1024.6	0.95503
1024.8	0.95519
1025.0	0.95507
1025.2	0.9552
1025.4	0.95483
1025.6	0.95423
1025.8	0.95427
1026.0	0.95432
1026.2	0.95295
1026.4	0.95288
1026.6	0.95245
1026.8	0.95115
1027.0	0.95156
1027.2	0.95084
1027.4	0.95015
1027.6	0.95027
1027.8	0.94885
1028.0	0.9473
1028.2	0.94781
1028.4	0.94585
1028.6	0.9455
1028.8	0.94492
1029.0	0.94445
1029.2	0.94353
1029.4	0.94361
1029.6	0.94354
1029.8	0.94265
1030.0	0.9427
1030.2	0.94349
1030.4	0.94254
1030.6	0.94226
1030.8	0.94219
1031.0	0.94293
1031.2	0.9424
1031.4	0.9418
1031.6	0.94362
1031.8	0.94274
1032.0	0.94388
1032.2	0.94427
1032.4	0.9454
1032.6	0.94639
1032.8	0.94682
1033.0	0.94697
1033.2	0.94795
1033.4	0.94859
1033.6	0.94923
1033.8	0.94997
1034.0	0.95048
1034.2	0.95154
1034.4	0.95283
1034.6	0.95203
1034.8	0.9531
1035.0	0.95334
1035.2	0.95452
1035.4	0.95397
1035.6	0.95423
1035.8	0.95498
1036.0	0.95474
1036.2	0.95441
1036.4	0.95449
1036.6	0.9543
1036.8	0.95444
1037.0	0.95391
1037.2	0.95329
1037.4	0.9522
1037.6	0.95235
1037.8	0.95206
1038.0	0.9518
1038.2	0.95137
1038.4	0.95066
1038.6	0.95027
1038.8	0.94898
1039.0	0.94834
1039.2	0.94853
1039.4	0.94733
1039.6	0.94772
1039.8	0.94613
1040.0	0.94592
1040.2	0.94514
1040.4	0.94461
1040.6	0.94498
1040.8	0.94561
1041.0	0.94311
1041.2	0.94449
1041.4	0.94416
1041.6	0.94353
1041.8	0.9443
1042.0	0.94394
1042.2	0.94409
1042.4	0.94472
1042.6	0.94439
1042.8	0.94522
1043.0	0.94572
1043.2	0.94572
1043.4	0.94713
1043.6	0.94718
1043.8	0.94799
1044.0	0.94935
1044.2	0.94909
1044.4	0.94891
1044.6	0.95029
1044.8	0.94933
1045.0	0.95057
1045.2	0.95011
1045.4	0.95196
1045.6	0.95135
1045.8	0.95257
1046.0	0.95332
1046.2	0.95225
1046.4	0.95331
1046.6	0.95369
1046.8	0.9533
1047.0	0.95392
1047.2	0.95341
1047.4	0.95322
1047.6	0.95348
1047.8	0.95287
1048.0	0.95333
1048.2	0.95199
1048.4	0.95237
1048.6	0.9533
1048.8	0.95099
1049.0	0.95161
1049.2	0.95029
1049.4	0.94946
1049.6	0.94936
1049.8	0.94864
1050.0	0.94699
1050.2	0.94744
1050.4	0.94543
1050.6	0.94612
1050.8	0.94501
1051.0	0.94491
1051.2	0.94488
1051.4	0.94416
1051.6	0.94459
1051.8	0.9433
1052.0	0.94382
1052.2	0.9441
1052.4	0.94217
1052.6	0.94315
1052.8	0.94309
1053.0	0.94224
1053.2	0.94424
1053.4	0.94395
1053.6	0.94495
1053.8	0.94555
1054.0	0.94572
1054.2	0.94626
1054.4	0.94682
1054.6	0.94526
1054.8	0.94857
1055.0	0.94816
1055.2	0.94921
1055.4	0.95014
1055.6	0.95042
1055.8	0.95115
1056.0	0.95129
1056.2	0.95284
1056.4	0.95282
1056.6	0.95296
1056.8	0.95424
1057.0	0.95281
1057.2	0.95463
1057.4	0.9545
1057.6	0.95414
1057.8	0.95544
1058.0	0.95529
1058.2	0.95553
1058.4	0.95625
1058.6	0.95533
1058.8	0.95573
1059.0	0.95502
1059.2	0.95501
1059.4	0.95446
1059.6	0.95301
1059.8	0.95418
1060.0	0.95324
1060.2	0.95426
1060.4	0.95184
1060.6	0.95106
1060.8	0.95193
1061.0	0.95061
1061.2	0.94955
1061.4	0.95026
1061.6	0.94834
1061.8	0.94971
1062.0	0.94774
1062.2	0.94652
1062.4	0.94791
1062.6	0.94519
1062.8	0.94494
1063.0	0.94524
1063.2	0.9455
1063.4	0.94489
1063.6	0.94459
1063.8	0.94486
1064.0	0.94495
1064.2	0.9442
1064.4	0.9437
1064.6	0.94333
1064.8	0.94352
1065.0	0.94483
1065.2	0.94363
1065.4	0.94508
1065.6	0.94645
1065.8	0.94577
1066.0	0.94448
1066.2	0.94616
1066.4	0.94613
1066.6	0.94788
1066.8	0.94732
1067.0	0.94738
1067.2	0.949
1067.4	0.94868
1067.6	0.95008
1067.8	0.94964
1068.0	0.94945
1068.2	0.95068
1068.4	0.94928
1068.6	0.95106
1068.8	0.95176
1069.0	0.9508
1069.2	0.95122
1069.4	0.95166
1069.6	0.95082
1069.8	0.95143
1070.0	0.9514
1070.2	0.95038
1070.4	0.9517
1070.6	0.95195
1070.8	0.95121
1071.0	0.94999
1071.2	0.95168
1071.4	0.94983
1071.6	0.94995
1071.8	0.94948
1072.0	0.94857
1072.2	0.94783
1072.4	0.94771
1072.6	0.94694
1072.8	0.94714
1073.0	0.9459
1073.2	0.94688
1073.4	0.94573
1073.6	0.94612
1073.8	0.94485
1074.0	0.94393
1074.2	0.9447
1074.4	0.94325
1074.6	0.94409
1074.8	0.94466
1075.0	0.94444
1075.2	0.94206
1075.4	0.94327
1075.6	0.94421
1075.8	0.94406
1076.0	0.94522
1076.2	0.94224
1076.4	0.94295
1076.6	0.94461
1076.8	0.94502
1077.0	0.94426
1077.2	0.9449
1077.4	0.94783
1077.6	0.94664
1077.8	0.94732
1078.0	0.94799
1078.2	0.94762
1078.4	0.94873
1078.6	0.94737
1078.8	0.94752
1079.0	0.9488
1079.2	0.94949
1079.4	0.94999
1079.6	0.9496
1079.8	0.95022
1080.0	0.95139
1080.2	0.95107
1080.4	0.94981
1080.6	0.95144
1080.8	0.95132
1081.0	0.94939
1081.2	0.95096
1081.4	0.94952
1081.6	0.9512
1081.8	0.94915
1082.0	0.94954
1082.2	0.9497
1082.4	0.94989
1082.6	0.94923
1082.8	0.9474
1083.0	0.9488
1083.2	0.94742
1083.4	0.94683
1083.6	0.94668
1083.8	0.94598
1084.0	0.94522
1084.2	0.94368
1084.4	0.94472
1084.6	0.94365
1084.8	0.94457
1085.0	0.9434
1085.2	0.9446
1085.4	0.94425
1085.6	0.94303
1085.8	0.94336
1086.0	0.94239
1086.2	0.94266
1086.4	0.94345
1086.6	0.94374
1086.8	0.94132
1087.0	0.94251
1087.2	0.94193
1087.4	0.94399
1087.6	0.94326
1087.8	0.94256
1088.0	0.94183
1088.2	0.94359
1088.4	0.9439
1088.6	0.94348
1088.8	0.94475
1089.0	0.94527
1089.2	0.94874
1089.4	0.94741
1089.6	0.94703
1089.8	0.94887
1090.0	0.94867
1090.2	0.94863
1090.4	0.94996
1090.6	0.94975
1090.8	0.94981
1091.0	0.95025
1091.2	0.95259
1091.4	0.95249
1091.6	0.95285
1091.8	0.953
1092.0	0.95255
1092.2	0.9526
1092.4	0.95235
1092.6	0.95415
1092.8	0.95565
1093.0	0.95326
1093.2	0.95365
1093.4	0.95389
1093.6	0.95474
1093.8	0.95295
1094.0	0.95181
1094.2	0.95404
1094.4	0.95234
1094.6	0.9536
1094.8	0.95124
1095.0	0.95177
1095.2	0.95211
1095.4	0.95267
1095.6	0.9498
1095.8	0.94968
1096.0	0.94985
1096.2	0.94927
1096.4	0.94837
1096.6	0.94868
1096.8	0.94613
1097.0	0.94654
1097.2	0.9485
1097.4	0.94692
1097.6	0.94616
1097.8	0.9453
1098.0	0.94356
1098.2	0.94497
1098.4	0.94431
1098.6	0.94322
1098.8	0.94182
1099.0	0.9435
1099.2	0.94484
1099.4	0.94326
1099.6	0.94498
1099.8	0.94403
1100.0	0.94466
1100.2	0.9453
1100.4	0.94505
1100.6	0.94348
1100.8	0.94566
1101.0	0.94497
1101.2	0.94505
1101.4	0.94935
1101.6	0.94942
1101.8	0.9506
1102.0	0.94995
1102.2	0.94781
1102.4	0.95055
1102.6	0.95014
1102.8	0.95193
1103.0	0.95102
1103.2	0.95365
1103.4	0.95453
1103.6	0.95184
1103.8	0.95167
1104.0	0.95521
1104.2	0.95412
1104.4	0.95325
1104.6	0.95337
1104.8	0.95525
1105.0	0.9546
1105.2	0.95517
1105.4	0.95683
1105.6	0.9547
1105.8	0.95231
1106.0	0.95562
1106.2	0.95373
1106.4	0.95425
1106.6	0.95149
1106.8	0.95059
1107.0	0.95147
1107.2	0.95133
1107.4	0.95338
1107.6	0.95063
1107.8	0.95112
1108.0	0.94888
1108.2	0.94736
1108.4	0.9513
1108.6	0.94994
1108.8	0.9478
1109.0	0.94779
1109.2	0.94803
1109.4	0.9488
1109.6	0.94501
1109.8	0.94322
1110.0	0.94665
1110.2	0.94435
1110.4	0.94558
1110.6	0.94227
1110.8	0.945
1111.0	0.93901
1111.2	0.94426
1111.4	0.94235
1111.6	0.94301
1111.8	0.94235
1112.0	0.94424
1112.2	0.94264
1112.4	0.94453
1112.6	0.94229
1112.8	0.94485
1113.0	0.94663
1113.2	0.94454
1113.4	0.94718
1113.6	0.946
1113.8	0.94648
1114.0	0.94587
1114.2	0.9465
1114.4	0.94793
1114.6	0.94756
1114.8	0.9528
1115.0	0.94901
1115.2	0.94852
1115.4	0.94967
1115.6	0.95048
1115.8	0.94777
1116.0	0.95189
1116.2	0.9498
1116.4	0.95267
1116.6	0.9502
1116.8	0.94806
1117.0	0.95171
1117.2	0.94923
1117.4	0.94766
1117.6	0.94886
1117.8	0.95062
1118.0	0.9481
1118.2	0.95066
1118.4	0.95105
1118.6	0.94952
1118.8	0.94979
1119.0	0.94651
1119.2	0.94788
1119.4	0.94724
1119.6	0.94866
1119.8	0.94617
1120.0	0.95987
1120.2	0.95948
1120.4	0.9591
1120.6	0.95872
1120.8	0.95834
1121.0	0.95796
1121.2	0.95758
1121.4	0.9572
1121.6	0.95682
1121.8	0.95643
1122.0	0.95605
1122.2	0.95567
1122.4	0.95529
1122.6	0.95491
1122.8	0.95453
1123.0	0.95415
1123.2	0.95377
1123.4	0.95339
1123.6	0.95301
1123.8	0.95264
1124.0	0.95226
1124.2	0.95188
1124.4	0.9515
1124.6	0.95112
1124.8	0.95074
1125.0	0.95037
1125.2	0.95094
1125.4	0.95152
1125.6	0.95209
1125.8	0.95266
1126.0	0.95323
1126.2	0.95381
1126.4	0.95438
1126.6	0.95495
1126.8	0.95553
1127.0	0.9561
1127.2	0.95668
1127.4	0.95725
1127.6	0.95783
1127.8	0.95841
1128.0	0.95898
1128.2	0.95956
1128.4	0.96014
1128.6	0.96071
1128.8	0.96129
1129.0	0.96187
1129.2	0.96245
1129.4	0.96303
1129.6	0.9636
1129.8	0.96418
1130.0	0.96473
1130.2	0.96435
1130.4	0.96398
1130.6	0.96361
1130.8	0.96324
1131.0	0.96286
1131.2	0.96249
1131.4	0.96212
1131.6	0.96175
1131.8	0.96137
1132.0	0.961
1132.2	0.96063
1132.4	0.96026
1132.6	0.95989
1132.8	0.95952
1133.0	0.95915
1133.2	0.95878
1133.4	0.95841
1133.6	0.95803
1133.8	0.95766
1134.0	0.95729
1134.2	0.95692
1134.4	0.95655
1134.6	0.95618
1134.8	0.95581
1135.0	0.95547
1135.2	0.95572
1135.4	0.95597
1135.6	0.95622
1135.8	0.95647
1136.0	0.95673
1136.2	0.95698
1136.4	0.95723
1136.6	0.95748
1136.8	0.95773
1137.0	0.95798
1137.2	0.95823
1137.4	0.95848
1137.6	0.95873
1137.8	0.95898
1138.0	0.95923
1138.2	0.95949
1138.4	0.95974
1138.6	0.95999
1138.8	0.96024
1139.0	0.96049
1139.2	0.96074
1139.4	0.961
1139.6	0.96125
1139.8	0.9615
1140.0	0.96175
1140.2	0.96201
1140.4	0.96226
1140.6	0.96251
1140.8	0.96277
1141.0	0.96302
1141.2	0.96328
1141.4	0.96353
1141.6	0.96378
1141.8	0.96404
1142.0	0.96429
1142.2	0.96455
1142.4	0.9648
1142.6	0.96506
1142.8	0.96531
1143.0	0.96557
1143.2	0.96582
1143.4	0.96608
1143.6	0.96633
1143.8	0.96659
1144.0	0.96684
1144.2	0.9671
1144.4	0.96735
1144.6	0.96761
1144.8	0.96786
1145.0	0.9681
1145.2	0.96774
1145.4	0.96737
1145.6	0.967
1145.8	0.96664
1146.0	0.96627
1146.2	0.96591
1146.4	0.96554
1146.6	0.96518
1146.8	0.96481
1147.0	0.96445
1147.2	0.96409
1147.4	0.96372
1147.6	0.96336
1147.8	0.96299
1148.0	0.96263
1148.2	0.96227
1148.4	0.9619
1148.6	0.96154
1148.8	0.96117
1149.0	0.96081
1149.2	0.96045
1149.4	0.96009
1149.6	0.95972
1149.8	0.95936
1150.0	0.95901
1150.2	0.95938
1150.4	0.95976
1150.6	0.96013
1150.8	0.96051
1151.0	0.96089
1151.2	0.96126
1151.4	0.96164
1151.6	0.96201
1151.8	0.96239
1152.0	0.96277
1152.2	0.96314
1152.4	0.96352
1152.6	0.9639
1152.8	0.96427
1153.0	0.96465
1153.2	0.96503
1153.4	0.9654
1153.6	0.96578
1153.8	0.96616
1154.0	0.96654
1154.2	0.96692
1154.4	0.96729
1154.6	0.96767
1154.8	0.96805
1155.0	0.96841
1155.2	0.96829
1155.4	0.96817
1155.6	0.96804
1155.8	0.96792
1156.0	0.96779
1156.2	0.96767
1156.4	0.96755
1156.6	0.96742
1156.8	0.9673
1157.0	0.96717
1157.2	0.96705
1157.4	0.96693
1157.6	0.9668
1157.8	0.96668
1158.0	0.96656
1158.2	0.96643
1158.4	0.96631
1158.6	0.96618
1158.8	0.96606
1159.0	0.96594
1159.2	0.96581
1159.4	0.96569
1159.6	0.96557
1159.8	0.96544
1160.0	0.96532
1160.2	0.96513
1160.4	0.96494
1160.6	0.96475
1160.8	0.96456
1161.0	0.96438
1161.2	0.96419
1161.4	0.964
1161.6	0.96381
1161.8	0.96363
1162.0	0.96344
1162.2	0.96325
1162.4	0.96306
1162.6	0.96288
1162.8	0.96269
1163.0	0.9625
1163.2	0.96231
1163.4	0.96213
1163.6	0.96194
1163.8	0.96175
1164.0	0.96156
1164.2	0.96138
1164.4	0.96119
1164.6	0.961
1164.8	0.96081
1165.0	0.96065
1165.2	0.961
1165.4	0.96136
1165.6	0.96171
1165.8	0.96207
1166.0	0.96242
1166.2	0.96278
1166.4	0.96313
1166.6	0.96349
1166.8	0.96384
1167.0	0.9642
1167.2	0.96456
1167.4	0.96491
1167.6	0.96527
1167.8	0.96562
1168.0	0.96598
1168.2	0.96634
1168.4	0.96669
1168.6	0.96705
1168.8	0.96741
1169.0	0.96776
1169.2	0.96812
1169.4	0.96848
1169.6	0.96884
1169.8	0.96919
1170.0	0.96951
1170.2	0.96916
1170.4	0.96881
1170.6	0.96846
1170.8	0.96811
1171.0	0.96776
1171.2	0.96742
1171.4	0.96707
1171.6	0.96672
1171.8	0.96637
1172.0	0.96602
1172.2	0.96567
1172.4	0.96532
1172.6	0.96497
1172.8	0.96462
1173.0	0.96427
1173.2	0.96393
1173.4	0.96358
1173.6	0.96323
1173.8	0.96288
1174.0	0.96253
1174.2	0.96219
1174.4	0.96184
1174.6	0.96149
1174.8	0.96114
1175.0	0.96081
1175.2	0.9609
1175.4	0.96099
1175.6	0.96109
1175.8	0.96118
1176.0	0.96127
1176.2	0.96136
1176.4	0.96145
1176.6	0.96154
1176.8	0.96164
1177.0	0.96173
1177.2	0.96182
1177.4	0.96191
1177.6	0.962
1177.8	0.96209
1178.0	0.96219
1178.2	0.96228
1178.4	0.96237
1178.6	0.96246
1178.8	0.96255
1179.0	0.96264
1179.2	0.96274
1179.4	0.96283
1179.6	0.96292
1179.8	0.96301
1180.0	0.96311
1180.2	0.96339
1180.4	0.96368
1180.6	0.96396
1180.8	0.96425
1181.0	0.96453
1181.2	0.96481
1181.4	0.9651
1181.6	0.96538
1181.8	0.96567
1182.0	0.96595
1182.2	0.96624
1182.4	0.96652
1182.6	0.96681
1182.8	0.96709
1183.0	0.96738
1183.2	0.96766
1183.4	0.96795
1183.6	0.96823
1183.8	0.96852
1184.0	0.9688
1184.2	0.96909
1184.4	0.96937
1184.6	0.96966
1184.8	0.96995
1185.0	0.97022
1185.2	0.96991
1185.4	0.9696
1185.6	0.96929
1185.8	0.96898
1186.0	0.96867
1186.2	0.96836
1186.4	0.96805
1186.6	0.96774
1186.8	0.96744
1187.0	0.96713
1187.2	0.96682
1187.4	0.96651
1187.6	0.9662
1187.8	0.96589
1188.0	0.96558
1188.2	0.96527
1188.4	0.96496
1188.6	0.96466
1188.8	0.96435
1189.0	0.96404
1189.2	0.96373
1189.4	0.96342
1189.6	0.96311
1189.8	0.96281
1190.0	0.96252
1190.2	0.96275
1190.4	0.96297
1190.6	0.96319
1190.8	0.96341
1191.0	0.96364
1191.2	0.96386
1191.4	0.96408
1191.6	0.9643
1191.8	0.96453
1192.0	0.96475
1192.2	0.96497
1192.4	0.96519
1192.6	0.96542
1192.8	0.96564
1193.0	0.96586
1193.2	0.96609
1193.4	0.96631
1193.6	0.96653
1193.8	0.96676
1194.0	0.96698
1194.2	0.9672
1194.4	0.96743
1194.6	0.96765
1194.8	0.96787
1195.0	0.9681
1195.2	0.96824
1195.4	0.96838
1195.6	0.96852
1195.8	0.96866
1196.0	0.9688
1196.2	0.96895
1196.4	0.96909
1196.6	0.96923
1196.8	0.96937
1197.0	0.96951
1197.2	0.96965
1197.4	0.9698
1197.6	0.96994
1197.8	0.97008
1198.0	0.97022
1198.2	0.97036
1198.4	0.97051
1198.6	0.97065
1198.8	0.97079
1199.0	0.97093
1199.2	0.97107
1199.4	0.97122
1199.6	0.97136
1199.8	0.9715
1200.0	0.97162
1200.2	0.9713
1200.4	0.97097
1200.6	0.97064
1200.8	0.97032
1201.0	0.96999
1201.2	0.96966
1201.4	0.96934
1201.6	0.96901
1201.8	0.96869
1202.0	0.96836
1202.2	0.96804
1202.4	0.96771
1202.6	0.96739
1202.8	0.96706
1203.0	0.96673
1203.2	0.96641
1203.4	0.96608
1203.6	0.96576
1203.8	0.96544
1204.0	0.96511
1204.2	0.96479
1204.4	0.96446
1204.6	0.96414
1204.8	0.96381
1205.0	0.96352
1205.2	0.96387
1205.4	0.96423
1205.6	0.96458
1205.8	0.96494
1206.0	0.96529
1206.2	0.96565
1206.4	0.966
1206.6	0.96636
1206.8	0.96671
1207.0	0.96707
1207.2	0.96743
1207.4	0.96778
1207.6	0.96814
1207.8	0.96849
1208.0	0.96885
1208.2	0.96921
1208.4	0.96956
1208.6	0.96992
1208.8	0.97028
1209.0	0.97064
1209.2	0.97099
1209.4	0.97135
1209.6	0.97171
1209.8	0.97207
1210.0	0.97241
1210.2	0.97239
1210.4	0.97237
1210.6	0.97236
1210.8	0.97234
1211.0	0.97232
1211.2	0.9723
1211.4	0.97229
1211.6	0.97227
1211.8	0.97225
1212.0	0.97224
1212.2	0.97222
1212.4	0.9722
1212.6	0.97218
1212.8	0.97217
1213.0	0.97215
1213.2	0.97213
1213.4	0.97212
1213.6	0.9721
1213.8	0.97208
1214.0	0.97207
1214.2	0.97205
1214.4	0.97203
1214.6	0.97201
1214.8	0.972
1215.0	0.97197
1215.2	0.97162
1215.4	0.97127
1215.6	0.97092
1215.8	0.97057
1216.0	0.97022
1216.2	0.96987
1216.4	0.96952
1216.6	0.96917
1216.8	0.96882
1217.0	0.96847
1217.2	0.96812
1217.4	0.96777
1217.6	0.96742
1217.8	0.96707
1218.0	0.96672
1218.2	0.96637
1218.4	0.96602
1218.6	0.96567
1218.8	0.96533
1219.0	0.96498
1219.2	0.96463
1219.4	0.96428
1219.6	0.96393
1219.8	0.96358
1220.0	0.96327
1220.2	0.9636
1220.4	0.96394
1220.6	0.96428
1220.8	0.96461
1221.0	0.96495
1221.2	0.96529
1221.4	0.96563
1221.6	0.96596
1221.8	0.9663
1222.0	0.96664
1222.2	0.96698
1222.4	0.96732
1222.6	0.96765
1222.8	0.96799
1223.0	0.96833
1223.2	0.96867
1223.4	0.96901
1223.6	0.96935
1223.8	0.96969
1224.0	0.97003
1224.2	0.97037
1224.4	0.97071
1224.6	0.97104
1224.8	0.97138
1225.0	0.97171
1225.2	0.97169
1225.4	0.97167
1225.6	0.97165
1225.8	0.97163
1226.0	0.97161
1226.2	0.9716
1226.4	0.97158
1226.6	0.97156
1226.8	0.97154
1227.0	0.97152
1227.2	0.9715
1227.4	0.97148
1227.6	0.97147
1227.8	0.97145
1228.0	0.97143
1228.2	0.97141
1228.4	0.97139
1228.6	0.97137
1228.8	0.97135
1229.0	0.97134
1229.2	0.97132
1229.4	0.9713
1229.6	0.97128
1229.8	0.97126
1230.0	0.97123
1230.2	0.97087
1230.4	0.97052
1230.6	0.97016
1230.8	0.96981
1231.0	0.96946
1231.2	0.9691
1231.4	0.96875
1231.6	0.96839
1231.8	0.96804
1232.0	0.96769
1232.2	0.96733
1232.4	0.96698
1232.6	0.96663
1232.8	0.96628
1233.0	0.96592
1233.2	0.96557
1233.4	0.96522
1233.6	0.96487
1233.8	0.96451
1234.0	0.96416
1234.2	0.96381
1234.4	0.96346
1234.6	0.96311
1234.8	0.96275
1235.0	0.96241
1235.2	0.96278
1235.4	0.96316
1235.6	0.96354
1235.8	0.96392
1236.0	0.9643
1236.2	0.96468
1236.4	0.96506
1236.6	0.96543
1236.8	0.96581
1237.0	0.96619
1237.2	0.96657
1237.4	0.96695
1237.6	0.96733
1237.8	0.96771
1238.0	0.96809
1238.2	0.96847
1238.4	0.96885
1238.6	0.96923
1238.8	0.96961
1239.0	0.96999
1239.2	0.97037
1239.4	0.97076
1239.6	0.97114
1239.8	0.97152
1240.0	0.9719
1240.2	0.97196
1240.4	0.97203
1240.6	0.97209
1240.8	0.97216
1241.0	0.97223
1241.2	0.97229
1241.4	0.97236
1241.6	0.97243
1241.8	0.97249
1242.0	0.97256
1242.2	0.97263
1242.4	0.97269
1242.6	0.97276
1242.8	0.97283
1243.0	0.97289
1243.2	0.97296
1243.4	0.97303
1243.6	0.97309
1243.8	0.97316
1244.0	0.97322
1244.2	0.97329
1244.4	0.97336
1244.6	0.97342
1244.8	0.97349
1245.0	0.97355
1245.2	0.97322
1245.4	0.97289
1245.6	0.97256
1245.8	0.97223
1246.0	0.9719
1246.2	0.97158
1246.4	0.97125
1246.6	0.97092
1246.8	0.97059
1247.0	0.97026
1247.2	0.96993
1247.4	0.96961
1247.6	0.96928
1247.8	0.96895
1248.0	0.96862
1248.2	0.9683
1248.4	0.96797
1248.6	0.96764
1248.8	0.96731
1249.0	0.96699
1249.2	0.96666
1249.4	0.96633
1249.6	0.96601
1249.8	0.96568
1250.0	0.96537
1250.2	0.96571
1250.4	0.96605
1250.6	0.96638
1250.8	0.96672
1251.0	0.96706
1251.2	0.96739
1251.4	0.96773
1251.6	0.96807
1251.8	0.9684
1252.0	0.96874
1252.2	0.96908
1252.4	0.96942
1252.6	0.96976
1252.8	0.97009
1253.0	0.97043
1253.2	0.97077
1253.4	0.97111
1253.6	0.97145
1253.8	0.97178
1254.0	0.97212
1254.2	0.97246
1254.4	0.9728
1254.6	0.97314
1254.8	0.97348
1255.0	0.97381
1255.2	0.974
1255.4	0.9742
1255.6	0.97439
1255.8	0.97458
1256.0	0.97477
1256.2	0.97496
1256.4	0.97515
1256.6	0.97534
1256.8	0.97554
1257.0	0.97573
1257.2	0.97592
1257.4	0.97611
1257.6	0.9763
1257.8	0.9765
1258.0	0.97669
1258.2	0.97688
1258.4	0.97707
1258.6	0.97726
1258.8	0.97745
1259.0	0.97765
1259.2	0.97784
1259.4	0.97803
1259.6	0.97822
1259.8	0.97842
1260.0	0.97859
1260.2	0.97815
1260.4	0.97772
1260.6	0.97729
1260.8	0.97686
1261.0	0.97643
1261.2	0.97599
1261.4	0.97556
1261.6	0.97513
1261.8	0.9747
1262.0	0.97427
1262.2	0.97384
1262.4	0.97341
1262.6	0.97298
1262.8	0.97255
1263.0	0.97212
1263.2	0.97169
1263.4	0.97126
1263.6	0.97083
1263.8	0.9704
1264.0	0.96997
1264.2	0.96955
1264.4	0.96912
1264.6	0.96869
1264.8	0.96826
1265.0	0.96785
1265.2	0.96808
1265.4	0.9683
1265.6	0.96853
1265.8	0.96875
1266.0	0.96897
1266.2	0.9692
1266.4	0.96942
1266.6	0.96965
1266.8	0.96987
1267.0	0.9701
1267.2	0.97032
1267.4	0.97055
1267.6	0.97077
1267.8	0.971
1268.0	0.97122
1268.2	0.97145
1268.4	0.97167
1268.6	0.9719
1268.8	0.97212
1269.0	0.97235
1269.2	0.97258
1269.4	0.9728
1269.6	0.97303
1269.8	0.97325
1270.0	0.97348
1270.2	0.97367
1270.4	0.97386
1270.6	0.97405
1270.8	0.97424
1271.0	0.97443
1271.2	0.97463
1271.4	0.97482
1271.6	0.97501
1271.8	0.9752
1272.0	0.97539
1272.2	0.97559
1272.4	0.97578
1272.6	0.97597
1272.8	0.97616
1273.0	0.97635
1273.2	0.97655
1273.4	0.97674
1273.6	0.97693
1273.8	0.97712
1274.0	0.97731
1274.2	0.97751
1274.4	0.9777
1274.6	0.97789
1274.8	0.97808
1275.0	0.97826
1275.2	0.9779
1275.4	0.97755
1275.6	0.9772
1275.8	0.97684
1276.0	0.97649
1276.2	0.97613
1276.4	0.97578
1276.6	0.97543
1276.8	0.97507
1277.0	0.97472
1277.2	0.97437
1277.4	0.97401
1277.6	0.97366
1277.8	0.97331
1278.0	0.97296
1278.2	0.9726
1278.4	0.97225
1278.6	0.9719
1278.8	0.97155
1279.0	0.9712
1279.2	0.97084
1279.4	0.97049
1279.6	0.97014
1279.8	0.96979
1280.0	0.96944
1280.2	0.96943
1280.4	0.96943
1280.6	0.96942
1280.8	0.96941
1281.0	0.9694
1281.2	0.96939
1281.4	0.96939
1281.6	0.96938
1281.8	0.96937
1282.0	0.96936
1282.2	0.96935
1282.4	0.96935
1282.6	0.96934
1282.8	0.96933
1283.0	0.96932
1283.2	0.96931
1283.4	0.96931
1283.6	0.9693
1283.8	0.96929
1284.0	0.96928
1284.2	0.96927
1284.4	0.96927
1284.6	0.96926
1284.8	0.96925
1285.0	0.96925
1285.2	0.96959
1285.4	0.96994
1285.6	0.97028
1285.8	0.97063
1286.0	0.97097
1286.2	0.97132
1286.4	0.97166
1286.6	0.97201
1286.8	0.97235
1287.0	0.9727
1287.2	0.97305
1287.4	0.97339
1287.6	0.97374
1287.8	0.97408
1288.0	0.97443
1288.2	0.97478
1288.4	0.97512
1288.6	0.97547
1288.8	0.97582
1289.0	0.97616
1289.2	0.97651
1289.4	0.97686
1289.6	0.97721
1289.8	0.97755
1290.0	0.97788
1290.2	0.97769
1290.4	0.97749
1290.6	0.9773
1290.8	0.97711
1291.0	0.97692
1291.2	0.97673
1291.4	0.97654
1291.6	0.97635
1291.8	0.97616
1292.0	0.97597
1292.2	0.97578
1292.4	0.97559
1292.6	0.9754
1292.8	0.97521
1293.0	0.97502
1293.2	0.97483
1293.4	0.97463
1293.6	0.97444
1293.8	0.97425
1294.0	0.97406
1294.2	0.97387
1294.4	0.97368
1294.6	0.97349
1294.8	0.9733
1295.0	0.97311
1295.2	0.9729
1295.4	0.97269
1295.6	0.97247
1295.8	0.97226
1296.0	0.97205
1296.2	0.97184
1296.4	0.97162
1296.6	0.97141
1296.8	0.9712
1297.0	0.97099
1297.2	0.97078
1297.4	0.97056
1297.6	0.97035
1297.8	0.97014
1298.0	0.96993
1298.2	0.96972
1298.4	0.9695
1298.6	0.96929
1298.8	0.96908
1299.0	0.96887
1299.2	0.96866
1299.4	0.96844
1299.6	0.96823
1299.8	0.96802
1300.0	0.96784
1300.2	0.96818
1300.4	0.96853
1300.6	0.96888
1300.8	0.96923
1301.0	0.96957
1301.2	0.96992
1301.4	0.97027
1301.6	0.97062
1301.8	0.97096
1302.0	0.97131
1302.2	0.97166
1302.4	0.97201
1302.6	0.97236
1302.8	0.97271
1303.0	0.97306
1303.2	0.97341
1303.4	0.97376
1303.6	0.9741
1303.8	0.97445
1304.0	0.9748
1304.2	0.97515
1304.4	0.9755
1304.6	0.97585
1304.8	0.9762
1305.0	0.97654
1305.2	0.97653
1305.4	0.97652
1305.6	0.97651
1305.8	0.97651
1306.0	0.9765
1306.2	0.97649
1306.4	0.97648
1306.6	0.97647
1306.8	0.97647
1307.0	0.97646
1307.2	0.97645
1307.4	0.97644
1307.6	0.97643
1307.8	0.97643
1308.0	0.97642
1308.2	0.97641
1308.4	0.9764
1308.6	0.97639
1308.8	0.97639
1309.0	0.97638
1309.2	0.97637
1309.4	0.97636
1309.6	0.97635
1309.8	0.97635
1310.0	0.97632
1310.2	0.976
1310.4	0.97568
1310.6	0.97535
1310.8	0.97503
1311.0	0.97471
1311.2	0.97439
1311.4	0.97406
1311.6	0.97374
1311.8	0.97342
1312.0	0.9731
1312.2	0.97278
1312.4	0.97245
1312.6	0.97213
1312.8	0.97181
1313.0	0.97149
1313.2	0.97117
1313.4	0.97085
1313.6	0.97053
1313.8	0.97021
1314.0	0.96988
1314.2	0.96956
1314.4	0.96924
1314.6	0.96892
1314.8	0.9686
1315.0	0.9683
1315.2	0.96854
1315.4	0.96879
1315.6	0.96903
1315.8	0.96928
1316.0	0.96953
1316.2	0.96977
1316.4	0.97002
1316.6	0.97026
1316.8	0.97051
1317.0	0.97075
1317.2	0.971
1317.4	0.97125
1317.6	0.97149
1317.8	0.97174
1318.0	0.97198
1318.2	0.97223
1318.4	0.97248
1318.6	0.97272
1318.8	0.97297
1319.0	0.97322
1319.2	0.97346
1319.4	0.97371
1319.6	0.97396
1319.8	0.9742
1320.0	0.97445
1320.2	0.97476
1320.4	0.97508
1320.6	0.97539
1320.8	0.9757
1321.0	0.97601
1321.2	0.97633
1321.4	0.97664
1321.6	0.97695
1321.8	0.97726
1322.0	0.97758
1322.2	0.97789
1322.4	0.9782
1322.6	0.97852
1322.8	0.97883
1323.0	0.97914
1323.2	0.97946
1323.4	0.97977
1323.6	0.98009
1323.8	0.9804
1324.0	0.98071
1324.2	0.98103
1324.4	0.98134
1324.6	0.98166
1324.8	0.98197
1325.0	0.98227
1325.2	0.98194
1325.4	0.98162
1325.6	0.98129
1325.8	0.98097
1326.0	0.98064
1326.2	0.98032
1326.4	0.97999
1326.6	0.97967
1326.8	0.97934
1327.0	0.97902
1327.2	0.97869
1327.4	0.97837
1327.6	0.97804
1327.8	0.97772
1328.0	0.9774
1328.2	0.97707
1328.4	0.97675
1328.6	0.97643
1328.8	0.9761
1329.0	0.97578
1329.2	0.97546
1329.4	0.97513
1329.6	0.97481
1329.8	0.97449
1330.0	0.97417
1330.2	0.97401
1330.4	0.97386
1330.6	0.9737
1330.8	0.97354
1331.0	0.97338
1331.2	0.97322
1331.4	0.97307
1331.6	0.97291
1331.8	0.97275
1332.0	0.97259
1332.2	0.97243
1332.4	0.97228
1332.6	0.97212
1332.8	0.97196
1333.0	0.9718
1333.2	0.97165
1333.4	0.97149
1333.6	0.97133
1333.8	0.97117
1334.0	0.97102
1334.2	0.97086
1334.4	0.9707
1334.6	0.97054
1334.8	0.97039
1335.0	0.97024
1335.2	0.97066
1335.4	0.97108
1335.6	0.97151
1335.8	0.97193
1336.0	0.97235
1336.2	0.97278
1336.4	0.9732
1336.6	0.97362
1336.8	0.97405
1337.0	0.97447
1337.2	0.9749
1337.4	0.97532
1337.6	0.97575
1337.8	0.97617
1338.0	0.9766
1338.2	0.97702
1338.4	0.97745
1338.6	0.97787
1338.8	0.9783
1339.0	0.97872
1339.2	0.97915
1339.4	0.97958
1339.6	0.98
1339.8	0.98043
1340.0	0.98085
1340.2	0.98082
1340.4	0.98079
1340.6	0.98076
1340.8	0.98073
1341.0	0.9807
1341.2	0.98067
1341.4	0.98064
1341.6	0.98061
1341.8	0.98058
1342.0	0.98055
1342.2	0.98052
1342.4	0.98049
1342.6	0.98046
1342.8	0.98043
1343.0	0.9804
1343.2	0.98037
1343.4	0.98034
1343.6	0.98031
1343.8	0.98028
1344.0	0.98025
1344.2	0.98022
1344.4	0.98019
1344.6	0.98016
1344.8	0.98013
1345.0	0.98007
1345.2	0.97933
1345.4	0.97859
1345.6	0.97786
1345.8	0.97712
1346.0	0.97639
1346.2	0.97565
1346.4	0.97492
1346.6	0.97418
1346.8	0.97345
1347.0	0.97272
1347.2	0.97199
1347.4	0.97126
1347.6	0.97053
1347.8	0.96979
1348.0	0.96907
1348.2	0.96834
1348.4	0.96761
1348.6	0.96688
1348.8	0.96615
1349.0	0.96543
1349.2	0.9647
1349.4	0.96397
1349.6	0.96325
1349.8	0.96252
1350.0	0.96184
1350.2	0.9637
1350.4	0.96557
1350.6	0.96744
1350.8	0.96932
1351.0	0.9712
1351.2	0.97308
1351.4	0.97496
1351.6	0.97685
1351.8	0.97875
1352.0	0.98064
1352.2	0.98255
1352.4	0.98445
1352.6	0.98636
1352.8	0.98827
1353.0	0.99019
1353.2	0.9921
1353.4	0.99403
1353.6	0.99595
1353.8	0.99788
1354.0	0.99982
1354.2	1.00176
1354.4	1.0037
1354.6	1.00564
1354.8	1.00759
1355.0	1.00945
1355.2	1.00869
1355.4	1.00793
1355.6	1.00718
1355.8	1.00642
1356.0	1.00566
1356.2	1.0049
1356.4	1.00415
1356.6	1.00339
1356.8	1.00264
1357.0	1.00188
1357.2	1.00113
1357.4	1.00038
1357.6	0.99963
1357.8	0.99887
1358.0	0.99812
1358.2	0.99737
1358.4	0.99662
1358.6	0.99587
1358.8	0.99512
1359.0	0.99438
1359.2	0.99363
1359.4	0.99288
1359.6	0.99213
1359.8	0.99139
1360.0	0.99065
1360.2	0.99017
1360.4	0.9897
1360.6	0.98923
1360.8	0.98875
1361.0	0.98828
1361.2	0.98781
1361.4	0.98734
1361.6	0.98687
1361.8	0.98639
1362.0	0.98592
1362.2	0.98545
1362.4	0.98498
1362.6	0.98451
1362.8	0.98404
1363.0	0.98357
1363.2	0.9831
1363.4	0.98263
1363.6	0.98216
1363.8	0.98169
1364.0	0.98122
1364.2	0.98076
1364.4	0.98029
1364.6	0.97982
1364.8	0.97935
1365.0	0.97888
1365.2	0.97849
1365.4	0.9781
1365.6	0.9777
1365.8	0.97731
1366.0	0.97692
1366.2	0.97652
1366.4	0.97613
1366.6	0.97574
1366.8	0.97535
1367.0	0.97495
1367.2	0.97456
1367.4	0.97417
1367.6	0.97378
1367.8	0.97339
1368.0	0.973
1368.2	0.9726
1368.4	0.97221
1368.6	0.97182
1368.8	0.97143
1369.0	0.97104
1369.2	0.97065
1369.4	0.97026
1369.6	0.96987
1369.8	0.96948
1370.0	0.9691
1370.2	0.96926
1370.4	0.96942
1370.6	0.96959
1370.8	0.96975
1371.0	0.96991
1371.2	0.97007
1371.4	0.97023
1371.6	0.9704
1371.8	0.97056
1372.0	0.97072
1372.2	0.97088
1372.4	0.97105
1372.6	0.97121
1372.8	0.97137
1373.0	0.97154
1373.2	0.9717
1373.4	0.97186
1373.6	0.97202
1373.8	0.97219
1374.0	0.97235
1374.2	0.97251
1374.4	0.97267
1374.6	0.97284
1374.8	0.973
1375.0	0.97304
1375.2	0.97004
1375.4	0.96704
1375.6	0.96406
1375.8	0.96109
1376.0	0.95812
1376.2	0.95517
1376.4	0.95222
1376.6	0.94929
1376.8	0.94636
1377.0	0.94344
1377.2	0.94053
1377.4	0.93763
1377.6	0.93474
1377.8	0.93185
1378.0	0.92898
1378.2	0.92611
1378.4	0.92326
1378.6	0.92041
1378.8	0.91757
1379.0	0.91474
1379.2	0.91192
1379.4	0.90911
1379.6	0.9063
1379.8	0.90351
1380.0	0.90084
1380.2	0.90413
1380.4	0.90742
1380.6	0.91073
1380.8	0.91405
1381.0	0.91739
1381.2	0.92073
1381.4	0.92409
1381.6	0.92746
1381.8	0.93084
1382.0	0.93423
1382.2	0.93764
1382.4	0.94106
1382.6	0.94449
1382.8	0.94793
1383.0	0.95139
1383.2	0.95486
1383.4	0.95834
1383.6	0.96184
1383.8	0.96534
1384.0	0.96886
1384.2	0.9724
1384.4	0.97594
1384.6	0.9795
1384.8	0.98307
1385.0	0.9865
1385.2	0.9857
1385.4	0.98489
1385.6	0.98409
1385.8	0.98328
1386.0	0.98248
1386.2	0.98168
1386.4	0.98088
1386.6	0.98008
1386.8	0.97928
1387.0	0.97848
1387.2	0.97768
1387.4	0.97688
1387.6	0.97608
1387.8	0.97528
1388.0	0.97449
1388.2	0.97369
1388.4	0.9729
1388.6	0.9721
1388.8	0.97131
1389.0	0.97052
1389.2	0.96972
1389.4	0.96893
1389.6	0.96814
1389.8	0.96735
1390.0	0.96656
1390.2	0.96656
1390.4	0.96656
1390.6	0.96655
1390.8	0.96655
1391.0	0.96654
1391.2	0.96654
1391.4	0.96654
1391.6	0.96653
1391.8	0.96653
1392.0	0.96653
1392.2	0.96652
1392.4	0.96652
1392.6	0.96651
1392.8	0.96651
1393.0	0.96651
1393.2	0.9665
1393.4	0.9665
1393.6	0.96649
1393.8	0.96649
1394.0	0.96649
1394.2	0.96648
1394.4	0.96648
1394.6	0.96647
1394.8	0.96647
1395.0	0.96647
1395.2	0.9678
1395.4	0.96913
1395.6	0.97046
1395.8	0.9718
1396.0	0.97313
1396.2	0.97447
1396.4	0.97581
1396.6	0.97715
1396.8	0.97849
1397.0	0.97984
1397.2	0.98118
1397.4	0.98253
1397.6	0.98388
1397.8	0.98524
1398.0	0.98659
1398.2	0.98795
1398.4	0.9893
1398.6	0.99066
1398.8	0.99202
1399.0	0.99339
1399.2	0.99475
1399.4	0.99612
1399.6	0.99749
1399.8	0.99886
1400.0	1.0002
1400.2	0.99882
1400.4	0.99744
1400.6	0.99607
1400.8	0.99469
1401.0	0.99332
1401.2	0.99195
1401.4	0.99058
1401.6	0.98921
1401.8	0.98785
1402.0	0.98648
1402.2	0.98512
1402.4	0.98376
1402.6	0.9824
1402.8	0.98105
1403.0	0.97969
1403.2	0.97834
1403.4	0.97699
1403.6	0.97564
1403.8	0.97429
1404.0	0.97295
1404.2	0.9716
1404.4	0.97026
1404.6	0.96892
1404.8	0.96758
1405.0	0.96627
1405.2	0.96654
1405.4	0.96681
1405.6	0.96708
1405.8	0.96735
1406.0	0.96762
1406.2	0.96789
1406.4	0.96816
1406.6	0.96843
1406.8	0.9687
1407.0	0.96897
1407.2	0.96925
1407.4	0.96952
1407.6	0.96979
1407.8	0.97006
1408.0	0.97033
1408.2	0.9706
1408.4	0.97088
1408.6	0.97115
1408.8	0.97142
1409.0	0.97169
1409.2	0.97196
1409.4	0.97224
1409.6	0.97251
1409.8	0.97278
1410.0	0.97305
1410.2	0.9731
1410.4	0.97314
1410.6	0.97319
1410.8	0.97324
1411.0	0.97328
1411.2	0.97333
1411.4	0.97338
1411.6	0.97342
1411.8	0.97347
1412.0	0.97352
1412.2	0.97356
1412.4	0.97361
1412.6	0.97366
1412.8	0.9737
1413.0	0.97375
1413.2	0.97379
1413.4	0.97384
1413.6	0.97389
1413.8	0.97393
1414.0	0.97398
1414.2	0.97403
1414.4	0.97407
1414.6	0.97412
1414.8	0.97417
1415.0	0.97422
1415.2	0.97452
1415.4	0.97482
1415.6	0.97512
1415.8	0.97542
1416.0	0.97572
1416.2	0.97602
1416.4	0.97632
1416.6	0.97662
1416.8	0.97692
1417.0	0.97722
1417.2	0.97752
1417.4	0.97781
1417.6	0.97811
1417.8	0.97841
1418.0	0.97871
1418.2	0.97901
1418.4	0.97932
1418.6	0.97962
1418.8	0.97992
1419.0	0.98022
1419.2	0.98052
1419.4	0.98082
1419.6	0.98112
1419.8	0.98142
1420.0	0.9817
1420.2	0.98135
1420.4	0.98101
1420.6	0.98066
1420.8	0.98031
1421.0	0.97997
1421.2	0.97962
1421.4	0.97927
1421.6	0.97893
1421.8	0.97858
1422.0	0.97823
1422.2	0.97789
1422.4	0.97754
1422.6	0.9772
1422.8	0.97685
1423.0	0.97651
1423.2	0.97616
1423.4	0.97582
1423.6	0.97547
1423.8	0.97513
1424.0	0.97478
1424.2	0.97444
1424.4	0.97409
1424.6	0.97375
1424.8	0.9734
1425.0	0.97306
1425.2	0.97283
1425.4	0.9726
1425.6	0.97237
1425.8	0.97214
1426.0	0.97191
1426.2	0.97168
1426.4	0.97145
1426.6	0.97122
1426.8	0.97099
1427.0	0.97076
1427.2	0.97053
1427.4	0.9703
1427.6	0.97007
1427.8	0.96984
1428.0	0.96961
1428.2	0.96938
1428.4	0.96915
1428.6	0.96892
1428.8	0.96869
1429.0	0.96846
1429.2	0.96823
1429.4	0.968
1429.6	0.96777
1429.8	0.96754
1430.0	0.96734
1430.2	0.96761
1430.4	0.96789
1430.6	0.96817
1430.8	0.96845
1431.0	0.96873
1431.2	0.96901
1431.4	0.96929
1431.6	0.96957
1431.8	0.96985
1432.0	0.97013
1432.2	0.97041
1432.4	0.97069
1432.6	0.97097
1432.8	0.97125
1433.0	0.97153
1433.2	0.97181
1433.4	0.97209
1433.6	0.97237
1433.8	0.97265
1434.0	0.97293
1434.2	0.97321
1434.4	0.97349
1434.6	0.97377
1434.8	0.97406
1435.0	0.97433
1435.2	0.9745
1435.4	0.97466
1435.6	0.97483
1435.8	0.975
1436.0	0.97516
1436.2	0.97533
1436.4	0.9755
1436.6	0.97566
1436.8	0.97583
1437.0	0.976
1437.2	0.97616
1437.4	0.97633
1437.6	0.9765
1437.8	0.97666
1438.0	0.97683
1438.2	0.977
1438.4	0.97716
1438.6	0.97733
1438.8	0.9775
1439.0	0.97766
1439.2	0.97783
1439.4	0.978
1439.6	0.97817
1439.8	0.97833
1440.0	0.97849
1440.2	0.9781
1440.4	0.97771
1440.6	0.97733
1440.8	0.97694
1441.0	0.97655
1441.2	0.97616
1441.4	0.97578
1441.6	0.97539
1441.8	0.975
1442.0	0.97461
1442.2	0.97423
1442.4	0.97384
1442.6	0.97345
1442.8	0.97307
1443.0	0.97268
1443.2	0.97229
1443.4	0.97191
1443.6	0.97152
1443.8	0.97114
1444.0	0.97075
1444.2	0.97037
1444.4	0.96998
1444.6	0.9696
1444.8	0.96921
1445.0	0.96883
1445.2	0.96864
1445.4	0.96845
1445.6	0.96826
1445.8	0.96807
1446.0	0.96788
1446.2	0.96769
1446.4	0.9675
1446.6	0.96731
1446.8	0.96712
1447.0	0.96693
1447.2	0.96674
1447.4	0.96655
1447.6	0.96636
1447.8	0.96617
1448.0	0.96598
1448.2	0.96579
1448.4	0.9656
1448.6	0.96541
1448.8	0.96522
1449.0	0.96503
1449.2	0.96484
1449.4	0.96465
1449.6	0.96446
1449.8	0.96427
1450.0	0.96411
1450.2	0.96446
1450.4	0.96481
1450.6	0.96516
1450.8	0.96552
1451.0	0.96587
1451.2	0.96622
1451.4	0.96658
1451.6	0.96693
1451.8	0.96728
1452.0	0.96764
1452.2	0.96799
1452.4	0.96835
1452.6	0.9687
1452.8	0.96905
1453.0	0.96941
1453.2	0.96976
1453.4	0.97012
1453.6	0.97047
1453.8	0.97083
1454.0	0.97118
1454.2	0.97154
1454.4	0.97189
1454.6	0.97225
1454.8	0.97261
1455.0	0.97296
1455.2	0.97326
1455.4	0.97357
1455.6	0.97387
1455.8	0.97417
1456.0	0.97447
1456.2	0.97478
1456.4	0.97508
1456.6	0.97538
1456.8	0.97569
1457.0	0.97599
1457.2	0.97629
1457.4	0.9766
1457.6	0.9769
1457.8	0.9772
1458.0	0.97751
1458.2	0.97781
1458.4	0.97811
1458.6	0.97842
1458.8	0.97872
1459.0	0.97903
1459.2	0.97933
1459.4	0.97963
1459.6	0.97994
1459.8	0.98024
1460.0	0.98054
1460.2	0.98035
1460.4	0.98017
1460.6	0.97998
1460.8	0.97979
1461.0	0.9796
1461.2	0.97942
1461.4	0.97923
1461.6	0.97904
1461.8	0.97885
1462.0	0.97867
1462.2	0.97848
1462.4	0.97829
1462.6	0.9781
1462.8	0.97792
1463.0	0.97773
1463.2	0.97754
1463.4	0.97736
1463.6	0.97717
1463.8	0.97698
1464.0	0.9768
1464.2	0.97661
1464.4	0.97642
1464.6	0.97623
1464.8	0.97605
1465.0	0.97586
1465.2	0.97556
1465.4	0.97525
1465.6	0.97495
1465.8	0.97465
1466.0	0.97435
1466.2	0.97405
1466.4	0.97375
1466.6	0.97344
1466.8	0.97314
1467.0	0.97284
1467.2	0.97254
1467.4	0.97224
1467.6	0.97194
1467.8	0.97164
1468.0	0.97134
1468.2	0.97104
1468.4	0.97074
1468.6	0.97044
1468.8	0.97014
1469.0	0.96984
1469.2	0.96954
1469.4	0.96924
1469.6	0.96894
1469.8	0.96864
1470.0	0.96834
1470.2	0.96854
1470.4	0.96874
1470.6	0.96895
1470.8	0.96915
1471.0	0.96935
1471.2	0.96955
1471.4	0.96975
1471.6	0.96996
1471.8	0.97016
1472.0	0.97036
1472.2	0.97056
1472.4	0.97076
1472.6	0.97097
1472.8	0.97117
1473.0	0.97137
1473.2	0.97157
1473.4	0.97177
1473.6	0.97198
1473.8	0.97218
1474.0	0.97238
1474.2	0.97258
1474.4	0.97279
1474.6	0.97299
1474.8	0.97319
1475.0	0.9734
1475.2	0.97366
1475.4	0.97392
1475.6	0.97418
1475.8	0.97444
1476.0	0.97471
1476.2	0.97497
1476.4	0.97523
1476.6	0.97549
1476.8	0.97575
1477.0	0.97602
1477.2	0.97628
1477.4	0.97654
1477.6	0.9768
1477.8	0.97707
1478.0	0.97733
1478.2	0.97759
1478.4	0.97785
1478.6	0.97812
1478.8	0.97838
1479.0	0.97864
1479.2	0.97891
1479.4	0.97917
1479.6	0.97943
1479.8	0.97969
1480.0	0.97995
1480.2	0.97979
1480.4	0.97963
1480.6	0.97947
1480.8	0.97931
1481.0	0.97915
1481.2	0.97899
1481.4	0.97882
1481.6	0.97866
1481.8	0.9785
1482.0	0.97834
1482.2	0.97818
1482.4	0.97802
1482.6	0.97786
1482.8	0.9777
1483.0	0.97753
1483.2	0.97737
1483.4	0.97721
1483.6	0.97705
1483.8	0.97689
1484.0	0.97673
1484.2	0.97657
1484.4	0.97641
1484.6	0.97625
1484.8	0.97609
1485.0	0.97592
1485.2	0.97556
1485.4	0.97519
1485.6	0.97483
1485.8	0.97446
1486.0	0.9741
1486.2	0.97373
1486.4	0.97337
1486.6	0.973
1486.8	0.97264
1487.0	0.97228
1487.2	0.97191
1487.4	0.97155
1487.6	0.97119
1487.8	0.97082
1488.0	0.97046
1488.2	0.9701
1488.4	0.96973
1488.6	0.96937
1488.8	0.96901
1489.0	0.96865
1489.2	0.96829
1489.4	0.96792
1489.6	0.96756
1489.8	0.9672
1490.0	0.96685
1490.2	0.96691
1490.4	0.96696
1490.6	0.96701
1490.8	0.96707
1491.0	0.96712
1491.2	0.96717
1491.4	0.96723
1491.6	0.96728
1491.8	0.96733
1492.0	0.96739
1492.2	0.96744
1492.4	0.96749
1492.6	0.96755
1492.8	0.9676
1493.0	0.96765
1493.2	0.9677
1493.4	0.96776
1493.6	0.96781
1493.8	0.96786
1494.0	0.96792
1494.2	0.96797
1494.4	0.96802
1494.6	0.96808
1494.8	0.96813
1495.0	0.96819
1495.2	0.96847
1495.4	0.96874
1495.6	0.96901
1495.8	0.96929
1496.0	0.96956
1496.2	0.96983
1496.4	0.97011
1496.6	0.97038
1496.8	0.97066
1497.0	0.97093
1497.2	0.9712
1497.4	0.97148
1497.6	0.97175
1497.8	0.97203
1498.0	0.9723
1498.2	0.97258
1498.4	0.97285
1498.6	0.97313
1498.8	0.9734
1499.0	0.97367
1499.2	0.97395
1499.4	0.97422
1499.6	0.9745
1499.8	0.97477
1500.0	0.97505
1500.2	0.97511
1500.4	0.97517
1500.6	0.97523
1500.8	0.97529
1501.0	0.97536
1501.2	0.97542
1501.4	0.97548
1501.6	0.97554
1501.8	0.9756
1502.0	0.97567
1502.2	0.97573
1502.4	0.97579
1502.6	0.97585
1502.8	0.97591
1503.0	0.97598
1503.2	0.97604
1503.4	0.9761
1503.6	0.97616
1503.8	0.97622
1504.0	0.97628
1504.2	0.97635
1504.4	0.97641
1504.6	0.97647
1504.8	0.97653
1505.0	0.97658
1505.2	0.97614
1505.4	0.9757
1505.6	0.97526
1505.8	0.97482
1506.0	0.97438
1506.2	0.97394
1506.4	0.9735
1506.6	0.97306
1506.8	0.97263
1507.0	0.97219
1507.2	0.97175
1507.4	0.97131
1507.6	0.97087
1507.8	0.97044
1508.0	0.97
1508.2	0.96956
1508.4	0.96913
1508.6	0.96869
1508.8	0.96825
1509.0	0.96782
1509.2	0.96738
1509.4	0.96695
1509.6	0.96651
1509.8	0.96608
1510.0	0.96565
1510.2	0.96547
1510.4	0.9653
1510.6	0.96513
1510.8	0.96496
1511.0	0.96478
1511.2	0.96461
1511.4	0.96444
1511.6	0.96426
1511.8	0.96409
1512.0	0.96392
1512.2	0.96375
1512.4	0.96357
1512.6	0.9634
1512.8	0.96323
1513.0	0.96306
1513.2	0.96288
1513.4	0.96271
1513.6	0.96254
1513.8	0.96237
1514.0	0.9622
1514.2	0.96202
1514.4	0.96185
1514.6	0.96168
1514.8	0.96151
1515.0	0.96135
1515.2	0.96165
1515.4	0.96194
1515.6	0.96223
1515.8	0.96253
1516.0	0.96282
1516.2	0.96312
1516.4	0.96341
1516.6	0.96371
1516.8	0.964
1517.0	0.9643
1517.2	0.96459
1517.4	0.96488
1517.6	0.96518
1517.8	0.96547
1518.0	0.96577
1518.2	0.96606
1518.4	0.96636
1518.6	0.96666
1518.8	0.96695
1519.0	0.96725
1519.2	0.96754
1519.4	0.96784
1519.6	0.96813
1519.8	0.96843
1520.0	0.96872
1520.2	0.96896
1520.4	0.96919
1520.6	0.96942
1520.8	0.96965
1521.0	0.96988
1521.2	0.97012
1521.4	0.97035
1521.6	0.97058
1521.8	0.97081
1522.0	0.97104
1522.2	0.97128
1522.4	0.97151
1522.6	0.97174
1522.8	0.97197
1523.0	0.97221
1523.2	0.97244
1523.4	0.97267
1523.6	0.9729
1523.8	0.97314
1524.0	0.97337
1524.2	0.9736
1524.4	0.97383
1524.6	0.97407
1524.8	0.9743
1525.0	0.97451
1525.2	0.97428
1525.4	0.97405
1525.6	0.97382
1525.8	0.97359
1526.0	0.97336
1526.2	0.97314
1526.4	0.97291
1526.6	0.97268
1526.8	0.97245
1527.0	0.97222
1527.2	0.97199
1527.4	0.97176
1527.6	0.97153
1527.8	0.97131
1528.0	0.97108
1528.2	0.97085
1528.4	0.97062
1528.6	0.97039
1528.8	0.97016
1529.0	0.96994
1529.2	0.96971
1529.4	0.96948
1529.6	0.96925
1529.8	0.96902
1530.0	0.96879
1530.2	0.96845
1530.4	0.96811
1530.6	0.96777
1530.8	0.96743
1531.0	0.96709
1531.2	0.96675
1531.4	0.9664
1531.6	0.96606
1531.8	0.96572
1532.0	0.96538
1532.2	0.96504
1532.4	0.96471
1532.6	0.96437
1532.8	0.96403
1533.0	0.96369
1533.2	0.96335
1533.4	0.96301
1533.6	0.96267
1533.8	0.96233
1534.0	0.96199
1534.2	0.96165
1534.4	0.96131
1534.6	0.96098
1534.8	0.96064
1535.0	0.96031
1535.2	0.96047
1535.4	0.96063
1535.6	0.96079
1535.8	0.96095
1536.0	0.96111
1536.2	0.96127
1536.4	0.96143
1536.6	0.96158
1536.8	0.96174
1537.0	0.9619
1537.2	0.96206
1537.4	0.96222
1537.6	0.96238
1537.8	0.96254
1538.0	0.9627
1538.2	0.96286
1538.4	0.96302
1538.6	0.96318
1538.8	0.96334
1539.0	0.9635
1539.2	0.96366
1539.4	0.96382
1539.6	0.96398
1539.8	0.96414
1540.0	0.96431
1540.2	0.96474
1540.4	0.96517
1540.6	0.9656
1540.8	0.96603
1541.0	0.96646
1541.2	0.96689
1541.4	0.96732
1541.6	0.96775
1541.8	0.96818
1542.0	0.96861
1542.2	0.96904
1542.4	0.96947
1542.6	0.9699
1542.8	0.97033
1543.0	0.97076
1543.2	0.97119
1543.4	0.97162
1543.6	0.97206
1543.8	0.97249
1544.0	0.97292
1544.2	0.97335
1544.4	0.97379
1544.6	0.97422
1544.8	0.97465
1545.0	0.97507
1545.2	0.97512
1545.4	0.97517
1545.6	0.97522
1545.8	0.97528
1546.0	0.97533
1546.2	0.97538
1546.4	0.97543
1546.6	0.97548
1546.8	0.97554
1547.0	0.97559
1547.2	0.97564
1547.4	0.97569
1547.6	0.97575
1547.8	0.9758
1548.0	0.97585
1548.2	0.9759
1548.4	0.97596
1548.6	0.97601
1548.8	0.97606
1549.0	0.97611
1549.2	0.97617
1549.4	0.97622
1549.6	0.97627
1549.8	0.97632
1550.0	0.97637
1550.2	0.97592
1550.4	0.97547
1550.6	0.97503
1550.8	0.97458
1551.0	0.97413
1551.2	0.97368
1551.4	0.97324
1551.6	0.97279
1551.8	0.97234
1552.0	0.9719
1552.2	0.97145
1552.4	0.97101
1552.6	0.97056
1552.8	0.97012
1553.0	0.96967
1553.2	0.96923
1553.4	0.96878
1553.6	0.96834
1553.8	0.96789
1554.0	0.96745
1554.2	0.967
1554.4	0.96656
1554.6	0.96612
1554.8	0.96567
1555.0	0.96524
1555.2	0.96514
1555.4	0.96503
1555.6	0.96492
1555.8	0.96481
1556.0	0.9647
1556.2	0.9646
1556.4	0.96449
1556.6	0.96438
1556.8	0.96427
1557.0	0.96416
1557.2	0.96406
1557.4	0.96395
1557.6	0.96384
1557.8	0.96373
1558.0	0.96362
1558.2	0.96352
1558.4	0.96341
1558.6	0.9633
1558.8	0.96319
1559.0	0.96309
1559.2	0.96298
1559.4	0.96287
1559.6	0.96276
1559.8	0.96265
1560.0	0.96256
1560.2	0.96276
1560.4	0.96296
1560.6	0.96315
1560.8	0.96335
1561.0	0.96355
1561.2	0.96375
1561.4	0.96395
1561.6	0.96415
1561.8	0.96435
1562.0	0.96454
1562.2	0.96474
1562.4	0.96494
1562.6	0.96514
1562.8	0.96534
1563.0	0.96554
1563.2	0.96574
1563.4	0.96593
1563.6	0.96613
1563.8	0.96633
1564.0	0.96653
1564.2	0.96673
1564.4	0.96693
1564.6	0.96713
1564.8	0.96733
1565.0	0.96753
1565.2	0.96785
1565.4	0.96816
1565.6	0.96848
1565.8	0.9688
1566.0	0.96911
1566.2	0.96943
1566.4	0.96975
1566.6	0.97006
1566.8	0.97038
1567.0	0.9707
1567.2	0.97101
1567.4	0.97133
1567.6	0.97165
1567.8	0.97197
1568.0	0.97228
1568.2	0.9726
1568.4	0.97292
1568.6	0.97324
1568.8	0.97355
1569.0	0.97387
1569.2	0.97419
1569.4	0.97451
1569.6	0.97483
1569.8	0.97515
1570.0	0.97545
1570.2	0.97532
1570.4	0.97518
1570.6	0.97505
1570.8	0.97492
1571.0	0.97478
1571.2	0.97465
1571.4	0.97451
1571.6	0.97438
1571.8	0.97425
1572.0	0.97411
1572.2	0.97398
1572.4	0.97384
1572.6	0.97371
1572.8	0.97358
1573.0	0.97344
1573.2	0.97331
1573.4	0.97318
1573.6	0.97304
1573.8	0.97291
1574.0	0.97278
1574.2	0.97264
1574.4	0.97251
1574.6	0.97237
1574.8	0.97224
1575.0	0.9721
1575.2	0.97159
1575.4	0.97108
1575.6	0.97056
1575.8	0.97005
1576.0	0.96954
1576.2	0.96903
1576.4	0.96852
1576.6	0.96801
1576.8	0.9675
1577.0	0.967
1577.2	0.96649
1577.4	0.96598
1577.6	0.96547
1577.8	0.96496
1578.0	0.96445
1578.2	0.96395
1578.4	0.96344
1578.6	0.96293
1578.8	0.96243
1579.0	0.96192
1579.2	0.96141
1579.4	0.96091
1579.6	0.9604
1579.8	0.9599
1580.0	0.9594
1580.2	0.95928
1580.4	0.95917
1580.6	0.95905
1580.8	0.95893
1581.0	0.95882
1581.2	0.9587
1581.4	0.95858
1581.6	0.95847
1581.8	0.95835
1582.0	0.95824
1582.2	0.95812
1582.4	0.958
1582.6	0.95789
1582.8	0.95777
1583.0	0.95765
1583.2	0.95754
1583.4	0.95742
1583.6	0.9573
1583.8	0.95719
1584.0	0.95707
1584.2	0.95695
1584.4	0.95684
1584.6	0.95672
1584.8	0.9566
1585.0	0.95651
1585.2	0.95688
1585.4	0.95726
1585.6	0.95764
1585.8	0.95802
1586.0	0.95839
1586.2	0.95877
1586.4	0.95915
1586.6	0.95953
1586.8	0.95991
1587.0	0.96029
1587.2	0.96067
1587.4	0.96104
1587.6	0.96142
1587.8	0.9618
1588.0	0.96218
1588.2	0.96256
1588.4	0.96294
1588.6	0.96332
1588.8	0.9637
1589.0	0.96408
1589.2	0.96446
1589.4	0.96484
1589.6	0.96522
1589.8	0.96561
1590.0	0.96597
1590.2	0.96607
1590.4	0.96616
1590.6	0.96625
1590.8	0.96634
1591.0	0.96643
1591.2	0.96653
1591.4	0.96662
1591.6	0.96671
1591.8	0.9668
1592.0	0.9669
1592.2	0.96699
1592.4	0.96708
1592.6	0.96717
1592.8	0.96726
1593.0	0.96736
1593.2	0.96745
1593.4	0.96754
1593.6	0.96763
1593.8	0.96773
1594.0	0.96782
1594.2	0.96791
1594.4	0.968
1594.6	0.96809
1594.8	0.96819
1595.0	0.96826
1595.2	0.96779
1595.4	0.96731
1595.6	0.96684
1595.8	0.96636
1596.0	0.96589
1596.2	0.96542
1596.4	0.96494
1596.6	0.96447
1596.8	0.96399
1597.0	0.96352
1597.2	0.96305
1597.4	0.96258
1597.6	0.9621
1597.8	0.96163
1598.0	0.96116
1598.2	0.96069
1598.4	0.96022
1598.6	0.95975
1598.8	0.95928
1599.0	0.9588
1599.2	0.95833
1599.4	0.95786
1599.6	0.95739
1599.8	0.95692
1600.0	0.95646
1600.2	0.95628
1600.4	0.95609
1600.6	0.95591
1600.8	0.95573
1601.0	0.95554
1601.2	0.95536
1601.4	0.95517
1601.6	0.95499
1601.8	0.9548
1602.0	0.95462
1602.2	0.95444
1602.4	0.95425
1602.6	0.95407
1602.8	0.95389
1603.0	0.9537
1603.2	0.95352
1603.4	0.95333
1603.6	0.95315
1603.8	0.95297
1604.0	0.95278
1604.2	0.9526
1604.4	0.95242
1604.6	0.95223
1604.8	0.95205
1605.0	0.95187
